"rt","stimulus","key_press","trial_type","trial_index","time_elapsed","internal_node_id","test_part","condition","descriptor","pleasant_rating","unpleasant_rating","arousal_rating"
"1303.3000000286847","<h1 style=""color:white;"">Welcome to the experiment!</h1><p style=""color:white;"">Press any key to begin.</p>","32","html-keyboard-response","0","1306","0.0-0.0","","","","","",""
"11159.429999999702","<h2 style=""color:white;"">You will now see a series of pictures. </h2><h3 style=""color:white;"">Some of the pictures will be <b>positive</b>, like pictures of babies.   </h3><h3 style=""color:white;"">Some will be <b>negative</b>, like pictures of sharks or sad people. </h3><h3 style=""color:white;""> Some will be <b>neutral</b>, like pictures of a clock or desk.</h3><p style=""color:white;""> Press the spacebar to continue.</p>","32","html-keyboard-response","1","12467","0.0-1.0-0.0","","","","","",""
"6497.489999979734","<h2 style=""color:white;"">We want you to tell us how each picture makes you <b>feel</b>.</h2> <h3 style=""color:white;"">You will make <b>3 ratings</b> for each picture.</h3> <p style=""color:white;""> Press the spacebar to continue.</p>","32","html-keyboard-response","2","18966","0.0-1.0-1.0","","","","","",""
"10787.86499996204","<h2 style=""color:white;"">The first rating you will be asked to make is a rating of how <b>pleasant</b> you feel when you see the photo.</h2> <h3 style=""color:white;""><b>""Pleasantness""</b>  refers to how <b>happy</b> or <b>good</b> you feel when you see each photo and how much you like looking at it.</h3> <p style=""color:white;""> Press the spacebar to continue.</p>","32","html-keyboard-response","3","29755","0.0-1.0-2.0","","","","","",""
"12166.310000000522","<h2 style=""color:white;""><b>Pleasantness</b></h2> <h3 style=""color:white;"">This is the <b>pleasantness scale</b> that you will use to rate how <b>positive</b> you feel when you see each picture.</h3><img class='center' style='width:453px; height:215px;' src='scale/BlankScalePleasant.png'></img><p style=""color:white;""> Press the spacebar to continue.</p>","32","html-keyboard-response","4","41922","0.0-1.0-3.0","","","","","",""
"10228.379999985918","<h2 style=""color:white;"">The second rating you will be asked to make is a rating of how <b>unpleasant</b> you feel when you see the photo.</h2> <h3 style=""color:white;""><b>""Unpleasantness""</b> refers to how <b>bad</b> or <b>unhappy</b> you feel when you see each photo.</h3><p style=""color:white;""> Press the spacebar to continue.</p>","32","html-keyboard-response","5","52151","0.0-1.0-4.0","","","","","",""
"10540.455000009388","<h2 style=""color:white;""><b>Unpleasantness</b></h2> <h3 style=""color:white;"">This is the <b>unpleasantness scale</b> that you will use to rate how <b>negative</b> you feel when you see each picture.</h3><img class='center' style='width:451px; height:211px;' src='scale/BlankScaleUnpleasant.png'></img><p style=""color:white;""> Press the spacebar to continue.</p>","32","html-keyboard-response","6","62693","0.0-1.0-5.0","","","","","",""
"11109.5750000095","<h2 style=""color:white;"">You should decide how to rate each photo on the basis of how <b>pleasant</b> or <b>unpleasant</b> you feel when you see it.</h2> <h3 style=""color:white;"">There are no ""right"" or ""wrong"" answers for rating the photos.</h3> <h3 style=""color:white;"">Just go by how much you like or dislike each one.</h3> <p style=""color:white;""> Press the spacebar to continue.</p>","32","html-keyboard-response","7","73803","0.0-1.0-6.0","","","","","",""
"15103.020000038669","<h2 style=""color:white;"">The third rating you will be asked to make is a rating of how <b>arousing</b> or <b>exciting</b> each picture makes you feel.</h2> <h3 style=""color:white;""><b>""Arousing""</b> refers to how <b>excited</b> or <b>keyed-up</b> the photo makes you feel.<h3><h3 style=""color:white;"">Some of the pictures will be <b>highly arousing</b> and some will make you feel more <b>calm</b> or <b>sleepy</b>.</h3> <p style=""color:white;""> Press the spacebar to continue.</p>","32","html-keyboard-response","8","88908","0.0-1.0-7.0","","","","","",""
"12907.95500006061","<h2 style=""color:white;""><b>Arousal</b></h2> <p style=""color:white;"">This is the <b>arousal scale</b> that you will use to rate how <b>calm to excited</b> you feel when you see each picture.</p><img class='center' style='width:538px; height:222px;' src='scale/BlankScaleArousal.png'></img><p style=""color:white;""> Press the spacebar to continue.</p>","32","html-keyboard-response","9","101817","0.0-1.0-8.0","","","","","",""
"9922.174999956042","<h2 style=""color:white;"">Now we will have you rate some pictures for how <b>positive</b>, how <b>negative</b>, and how <b>arousing</b> they make you feel.</h2> <h3 style=""color:white;"">Please press the number on top of your keybaord that corresponds to your choice.</h3> <p style=""color:white;""> Press the spacebar to continue.</p>","32","html-keyboard-response","10","111740","0.0-1.0-9.0","","","","","",""
"null","<div style=""color:white; font-size:60px;"">+</div>","null","html-keyboard-response","11","112742","0.0-2.0-0.0","fixation","","","","",""
"null","","null","html-keyboard-response","12","115746","0.0-2.0-1.0","","neutral","gasCan","","",""
"3861.6899999324232","<h2 style=""color:white; text-align:center;"">How positive?</h2> <img class='center' style='height: 300px; width=450px;' src='stim/7011.bmp'><img class='center' src='scale/BlankScalePleasant.png'>","50","html-keyboard-response","13","119609","0.0-2.0-2.0","pleasant","","","2","",""
"null","<h2 style=""color:white; text-align:center;"">How positive?</h2> <img class='center' style='height: 300px; width=450px;' src='stim/7011.bmp'><img class='center' src='scale/PleasantScale2.jpg'>","null","html-keyboard-response","14","121612","0.0-2.0-3.0","","","","","",""
"null","","null","html-keyboard-response","15","124613","0.0-2.0-4.0","","neutral","gasCan","","",""
"1270.974999992177","<h2 style=""color:white; text-align:center;"">How negative?</h2> <img class='center' style='height: 300px; width=450px;' src='stim/7011.bmp'><img class='center' src='scale/BlankScaleUnpleasant.png'>","50","html-keyboard-response","16","125886","0.0-2.0-5.0","unpleasant","","","","2",""
"null","<h2 style=""color:white; text-align:center;"">How negative?</h2> <img class='center' style='height: 300px; width=450px;' src='stim/7011.bmp'><img class='center' src='scale/UnpleasantScale2.jpg'>","null","html-keyboard-response","17","127889","0.0-2.0-6.0","","","","","",""
"null","","null","html-keyboard-response","18","130891","0.0-2.0-7.0","","neutral","gasCan","","",""
"544.1550000105053","<h2 style=""color:white; text-align:center;"">How calm/excited?</h2> <img class='center' style='height: 300px; width=450px;' src='stim/7011.bmp'><img class='center' src='scale/BlankScaleArousal.png'>","51","html-keyboard-response","19","131437","0.0-2.0-8.0","arousal","","","","","3"
"null","<h2 style=""color:white; text-align:center;"">How calm/excited?</h2> <img class='center' style='height: 300px; width=450px;' src='stim/7011.bmp'><img class='center' src='scale/ArousalScale3.jpg'>","null","html-keyboard-response","20","133439","0.0-2.0-9.0","","","","","",""
"null","<div style=""color:white; font-size:60px;"">+</div>","null","html-keyboard-response","21","134441","0.0-2.0-0.1","fixation","","","","",""
"null","","null","html-keyboard-response","22","137443","0.0-2.0-1.1","","neutral","man","","",""
"886.850000009872","<h2 style=""color:white; text-align:center;"">How positive?</h2> <img class='center' style='height: 300px; width=450px;' src='stim/2190.bmp'><img class='center' src='scale/BlankScalePleasant.png'>","52","html-keyboard-response","23","138331","0.0-2.0-2.1","pleasant","","","4","",""
"null","<h2 style=""color:white; text-align:center;"">How positive?</h2> <img class='center' style='height: 300px; width=450px;' src='stim/2190.bmp'><img class='center' src='scale/PleasantScale4.jpg'>","null","html-keyboard-response","24","140333","0.0-2.0-3.1","","","","","",""
"null","","null","html-keyboard-response","25","143335","0.0-2.0-4.1","","neutral","man","","",""
"559.6549999900162","<h2 style=""color:white; text-align:center;"">How negative?</h2> <img class='center' style='height: 300px; width=450px;' src='stim/2190.bmp'><img class='center' src='scale/BlankScaleUnpleasant.png'>","49","html-keyboard-response","26","143897","0.0-2.0-5.1","unpleasant","","","","1",""
"null","<h2 style=""color:white; text-align:center;"">How negative?</h2> <img class='center' style='height: 300px; width=450px;' src='stim/2190.bmp'><img class='center' src='scale/UnpleasantScale1.jpg'>","null","html-keyboard-response","27","145900","0.0-2.0-6.1","","","","","",""
"null","","null","html-keyboard-response","28","148902","0.0-2.0-7.1","","neutral","man","","",""
"415.6799999764189","<h2 style=""color:white; text-align:center;"">How calm/excited?</h2> <img class='center' style='height: 300px; width=450px;' src='stim/2190.bmp'><img class='center' src='scale/BlankScaleArousal.png'>","51","html-keyboard-response","29","149319","0.0-2.0-8.1","arousal","","","","","3"
"null","<h2 style=""color:white; text-align:center;"">How calm/excited?</h2> <img class='center' style='height: 300px; width=450px;' src='stim/2190.bmp'><img class='center' src='scale/ArousalScale3.jpg'>","null","html-keyboard-response","30","151322","0.0-2.0-9.1","","","","","",""
"null","<div style=""color:white; font-size:60px;"">+</div>","null","html-keyboard-response","31","152323","0.0-2.0-0.2","fixation","","","","",""
"null","","null","html-keyboard-response","32","155324","0.0-2.0-1.2","","positive","rollercoaster","","",""
"3501.425000024028","<h2 style=""color:white; text-align:center;"">How positive?</h2> <img class='center' style='height: 300px; width=450px;' src='stim/8499.bmp'><img class='center' src='scale/BlankScalePleasant.png'>","51","html-keyboard-response","33","158827","0.0-2.0-2.2","pleasant","","","3","",""
"null","<h2 style=""color:white; text-align:center;"">How positive?</h2> <img class='center' style='height: 300px; width=450px;' src='stim/8499.bmp'><img class='center' src='scale/PleasantScale3.jpg'>","null","html-keyboard-response","34","160830","0.0-2.0-3.2","","","","","",""
"null","","null","html-keyboard-response","35","163832","0.0-2.0-4.2","","positive","rollercoaster","","",""
"3353.965000016615","<h2 style=""color:white; text-align:center;"">How negative?</h2> <img class='center' style='height: 300px; width=450px;' src='stim/8499.bmp'><img class='center' src='scale/BlankScaleUnpleasant.png'>","49","html-keyboard-response","36","167187","0.0-2.0-5.2","unpleasant","","","","1",""
"null","<h2 style=""color:white; text-align:center;"">How negative?</h2> <img class='center' style='height: 300px; width=450px;' src='stim/8499.bmp'><img class='center' src='scale/UnpleasantScale1.jpg'>","null","html-keyboard-response","37","169190","0.0-2.0-6.2","","","","","",""
"null","","null","html-keyboard-response","38","172192","0.0-2.0-7.2","","positive","rollercoaster","","",""
"3130.1699999021366","<h2 style=""color:white; text-align:center;"">How calm/excited?</h2> <img class='center' style='height: 300px; width=450px;' src='stim/8499.bmp'><img class='center' src='scale/BlankScaleArousal.png'>","50","html-keyboard-response","39","175324","0.0-2.0-8.2","arousal","","","","","2"
"null","<h2 style=""color:white; text-align:center;"">How calm/excited?</h2> <img class='center' style='height: 300px; width=450px;' src='stim/8499.bmp'><img class='center' src='scale/ArousalScale2.jpg'>","null","html-keyboard-response","40","177326","0.0-2.0-9.2","","","","","",""
"null","<div style=""color:white; font-size:60px;"">+</div>","null","html-keyboard-response","41","178327","0.0-2.0-0.3","fixation","","","","",""
"null","","null","html-keyboard-response","42","181330","0.0-2.0-1.3","","negative","skeleton","","",""
"2213.839999982156","<h2 style=""color:white; text-align:center;"">How positive?</h2> <img class='center' style='height: 300px; width=450px;' src='stim/9445.bmp'><img class='center' src='scale/BlankScalePleasant.png'>","49","html-keyboard-response","43","183547","0.0-2.0-2.3","pleasant","","","1","",""
"null","<h2 style=""color:white; text-align:center;"">How positive?</h2> <img class='center' style='height: 300px; width=450px;' src='stim/9445.bmp'><img class='center' src='scale/PleasantScale1.jpg'>","null","html-keyboard-response","44","185549","0.0-2.0-3.3","","","","","",""
"null","","null","html-keyboard-response","45","188551","0.0-2.0-4.3","","negative","skeleton","","",""
"1293.2450000662357","<h2 style=""color:white; text-align:center;"">How negative?</h2> <img class='center' style='height: 300px; width=450px;' src='stim/9445.bmp'><img class='center' src='scale/BlankScaleUnpleasant.png'>","51","html-keyboard-response","46","189846","0.0-2.0-5.3","unpleasant","","","","3",""
"934.6300000324845","<h2 style=""color:white; text-align:center;"">How negative?</h2> <img class='center' style='height: 300px; width=450px;' src='stim/9445.bmp'><img class='center' src='scale/UnpleasantScale3.jpg'>","52","html-keyboard-response","47","191848","0.0-2.0-6.3","","","","","",""
"null","","null","html-keyboard-response","48","194850","0.0-2.0-7.3","","negative","skeleton","","",""
"4055.2049999823794","<h2 style=""color:white; text-align:center;"">How calm/excited?</h2> <img class='center' style='height: 300px; width=450px;' src='stim/9445.bmp'><img class='center' src='scale/BlankScaleArousal.png'>","52","html-keyboard-response","49","198907","0.0-2.0-8.3","arousal","","","","","4"
"null","<h2 style=""color:white; text-align:center;"">How calm/excited?</h2> <img class='center' style='height: 300px; width=450px;' src='stim/9445.bmp'><img class='center' src='scale/ArousalScale4.jpg'>","null","html-keyboard-response","50","200910","0.0-2.0-9.3","","","","","",""
"null","<div style=""color:white; font-size:60px;"">+</div>","null","html-keyboard-response","51","201911","0.0-2.0-0.4","fixation","","","","",""
"null","","null","html-keyboard-response","52","204913","0.0-2.0-1.4","","negative","stitches","","",""
"1619.6950000012293","<h2 style=""color:white; text-align:center;"">How positive?</h2> <img class='center' style='height: 300px; width=450px;' src='stim/3195.bmp'><img class='center' src='scale/BlankScalePleasant.png'>","49","html-keyboard-response","53","206534","0.0-2.0-2.4","pleasant","","","1","",""
"null","<h2 style=""color:white; text-align:center;"">How positive?</h2> <img class='center' style='height: 300px; width=450px;' src='stim/3195.bmp'><img class='center' src='scale/PleasantScale1.jpg'>","null","html-keyboard-response","54","208536","0.0-2.0-3.4","","","","","",""
"null","","null","html-keyboard-response","55","211539","0.0-2.0-4.4","","negative","stitches","","",""
"1271.7450000345707","<h2 style=""color:white; text-align:center;"">How negative?</h2> <img class='center' style='height: 300px; width=450px;' src='stim/3195.bmp'><img class='center' src='scale/BlankScaleUnpleasant.png'>","53","html-keyboard-response","56","212813","0.0-2.0-5.4","unpleasant","","","","5",""
"null","<h2 style=""color:white; text-align:center;"">How negative?</h2> <img class='center' style='height: 300px; width=450px;' src='stim/3195.bmp'><img class='center' src='scale/UnpleasantScale5.jpg'>","null","html-keyboard-response","57","214815","0.0-2.0-6.4","","","","","",""
"null","","null","html-keyboard-response","58","217818","0.0-2.0-7.4","","negative","stitches","","",""
"1578.3700000029057","<h2 style=""color:white; text-align:center;"">How calm/excited?</h2> <img class='center' style='height: 300px; width=450px;' src='stim/3195.bmp'><img class='center' src='scale/BlankScaleArousal.png'>","52","html-keyboard-response","59","219398","0.0-2.0-8.4","arousal","","","","","4"
"null","<h2 style=""color:white; text-align:center;"">How calm/excited?</h2> <img class='center' style='height: 300px; width=450px;' src='stim/3195.bmp'><img class='center' src='scale/ArousalScale4.jpg'>","null","html-keyboard-response","60","221400","0.0-2.0-9.4","","","","","",""
"null","<div style=""color:white; font-size:60px;"">+</div>","null","html-keyboard-response","61","222403","0.0-2.0-0.5","fixation","","","","",""
"null","","null","html-keyboard-response","62","225405","0.0-2.0-1.5","","negative","funeral","","",""
"1751.769999973476","<h2 style=""color:white; text-align:center;"">How positive?</h2> <img class='center' style='height: 300px; width=450px;' src='stim/2799.bmp'><img class='center' src='scale/BlankScalePleasant.png'>","49","html-keyboard-response","63","227160","0.0-2.0-2.5","pleasant","","","1","",""
"null","<h2 style=""color:white; text-align:center;"">How positive?</h2> <img class='center' style='height: 300px; width=450px;' src='stim/2799.bmp'><img class='center' src='scale/PleasantScale1.jpg'>","null","html-keyboard-response","64","229162","0.0-2.0-3.5","","","","","",""
"null","","null","html-keyboard-response","65","232164","0.0-2.0-4.5","","negative","funeral","","",""
"635.7350000180304","<h2 style=""color:white; text-align:center;"">How negative?</h2> <img class='center' style='height: 300px; width=450px;' src='stim/2799.bmp'><img class='center' src='scale/BlankScaleUnpleasant.png'>","51","html-keyboard-response","66","232802","0.0-2.0-5.5","unpleasant","","","","3",""
"null","<h2 style=""color:white; text-align:center;"">How negative?</h2> <img class='center' style='height: 300px; width=450px;' src='stim/2799.bmp'><img class='center' src='scale/UnpleasantScale3.jpg'>","null","html-keyboard-response","67","234804","0.0-2.0-6.5","","","","","",""
"null","","null","html-keyboard-response","68","237806","0.0-2.0-7.5","","negative","funeral","","",""
"2819.2099999869242","<h2 style=""color:white; text-align:center;"">How calm/excited?</h2> <img class='center' style='height: 300px; width=450px;' src='stim/2799.bmp'><img class='center' src='scale/BlankScaleArousal.png'>","50","html-keyboard-response","69","240630","0.0-2.0-8.5","arousal","","","","","2"
"null","<h2 style=""color:white; text-align:center;"">How calm/excited?</h2> <img class='center' style='height: 300px; width=450px;' src='stim/2799.bmp'><img class='center' src='scale/ArousalScale2.jpg'>","null","html-keyboard-response","70","242631","0.0-2.0-9.5","","","","","",""
"null","<div style=""color:white; font-size:60px;"">+</div>","null","html-keyboard-response","71","243633","0.0-2.0-0.6","fixation","","","","",""
"null","","null","html-keyboard-response","72","246635","0.0-2.0-1.6","","positive","skydivers","","",""
"6720.209999941289","<h2 style=""color:white; text-align:center;"">How positive?</h2> <img class='center' style='height: 300px; width=450px;' src='stim/8185.bmp'><img class='center' src='scale/BlankScalePleasant.png'>","51","html-keyboard-response","73","253357","0.0-2.0-2.6","pleasant","","","3","",""
"null","<h2 style=""color:white; text-align:center;"">How positive?</h2> <img class='center' style='height: 300px; width=450px;' src='stim/8185.bmp'><img class='center' src='scale/PleasantScale3.jpg'>","null","html-keyboard-response","74","255360","0.0-2.0-3.6","","","","","",""
"null","","null","html-keyboard-response","75","258362","0.0-2.0-4.6","","positive","skydivers","","",""
"5594.600000069477","<h2 style=""color:white; text-align:center;"">How negative?</h2> <img class='center' style='height: 300px; width=450px;' src='stim/8185.bmp'><img class='center' src='scale/BlankScaleUnpleasant.png'>","49","html-keyboard-response","76","263958","0.0-2.0-5.6","unpleasant","","","","1",""
"null","<h2 style=""color:white; text-align:center;"">How negative?</h2> <img class='center' style='height: 300px; width=450px;' src='stim/8185.bmp'><img class='center' src='scale/UnpleasantScale1.jpg'>","null","html-keyboard-response","77","265960","0.0-2.0-6.6","","","","","",""
"null","","null","html-keyboard-response","78","268962","0.0-2.0-7.6","","positive","skydivers","","",""
"2875.3299999516457","<h2 style=""color:white; text-align:center;"">How calm/excited?</h2> <img class='center' style='height: 300px; width=450px;' src='stim/8185.bmp'><img class='center' src='scale/BlankScaleArousal.png'>","53","html-keyboard-response","79","271839","0.0-2.0-8.6","arousal","","","","","5"
"null","<h2 style=""color:white; text-align:center;"">How calm/excited?</h2> <img class='center' style='height: 300px; width=450px;' src='stim/8185.bmp'><img class='center' src='scale/ArousalScale5.jpg'>","null","html-keyboard-response","80","273841","0.0-2.0-9.6","","","","","",""
"null","<div style=""color:white; font-size:60px;"">+</div>","null","html-keyboard-response","81","274843","0.0-2.0-0.7","fixation","","","","",""
"null","","null","html-keyboard-response","82","277844","0.0-2.0-1.7","","positive","boys","","",""
"1600.3799999598414","<h2 style=""color:white; text-align:center;"">How positive?</h2> <img class='center' style='height: 300px; width=450px;' src='stim/2224.bmp'><img class='center' src='scale/BlankScalePleasant.png'>","52","html-keyboard-response","83","279447","0.0-2.0-2.7","pleasant","","","4","",""
"null","<h2 style=""color:white; text-align:center;"">How positive?</h2> <img class='center' style='height: 300px; width=450px;' src='stim/2224.bmp'><img class='center' src='scale/PleasantScale4.jpg'>","null","html-keyboard-response","84","281449","0.0-2.0-3.7","","","","","",""
"null","","null","html-keyboard-response","85","284450","0.0-2.0-4.7","","positive","boys","","",""
"613.5250000515953","<h2 style=""color:white; text-align:center;"">How negative?</h2> <img class='center' style='height: 300px; width=450px;' src='stim/2224.bmp'><img class='center' src='scale/BlankScaleUnpleasant.png'>","49","html-keyboard-response","86","285066","0.0-2.0-5.7","unpleasant","","","","1",""
"null","<h2 style=""color:white; text-align:center;"">How negative?</h2> <img class='center' style='height: 300px; width=450px;' src='stim/2224.bmp'><img class='center' src='scale/UnpleasantScale1.jpg'>","null","html-keyboard-response","87","287069","0.0-2.0-6.7","","","","","",""
"null","","null","html-keyboard-response","88","290071","0.0-2.0-7.7","","positive","boys","","",""
"7035.455000004731","<h2 style=""color:white; text-align:center;"">How calm/excited?</h2> <img class='center' style='height: 300px; width=450px;' src='stim/2224.bmp'><img class='center' src='scale/BlankScaleArousal.png'>","53","html-keyboard-response","89","297107","0.0-2.0-8.7","arousal","","","","","5"
"null","<h2 style=""color:white; text-align:center;"">How calm/excited?</h2> <img class='center' style='height: 300px; width=450px;' src='stim/2224.bmp'><img class='center' src='scale/ArousalScale5.jpg'>","null","html-keyboard-response","90","299110","0.0-2.0-9.7","","","","","",""
"null","<div style=""color:white; font-size:60px;"">+</div>","null","html-keyboard-response","91","300110","0.0-2.0-0.8","fixation","","","","",""
"null","","null","html-keyboard-response","92","303112","0.0-2.0-1.8","","positive","romance","","",""
"1918.1899999966845","<h2 style=""color:white; text-align:center;"">How positive?</h2> <img class='center' style='height: 300px; width=450px;' src='stim/4622.bmp'><img class='center' src='scale/BlankScalePleasant.png'>","52","html-keyboard-response","93","305032","0.0-2.0-2.8","pleasant","","","4","",""
"null","<h2 style=""color:white; text-align:center;"">How positive?</h2> <img class='center' style='height: 300px; width=450px;' src='stim/4622.bmp'><img class='center' src='scale/PleasantScale4.jpg'>","null","html-keyboard-response","94","307035","0.0-2.0-3.8","","","","","",""
"null","","null","html-keyboard-response","95","310040","0.0-2.0-4.8","","positive","romance","","",""
"2380.615000030957","<h2 style=""color:white; text-align:center;"">How negative?</h2> <img class='center' style='height: 300px; width=450px;' src='stim/4622.bmp'><img class='center' src='scale/BlankScaleUnpleasant.png'>","49","html-keyboard-response","96","312424","0.0-2.0-5.8","unpleasant","","","","1",""
"null","<h2 style=""color:white; text-align:center;"">How negative?</h2> <img class='center' style='height: 300px; width=450px;' src='stim/4622.bmp'><img class='center' src='scale/UnpleasantScale1.jpg'>","null","html-keyboard-response","97","314425","0.0-2.0-6.8","","","","","",""
"null","","null","html-keyboard-response","98","317428","0.0-2.0-7.8","","positive","romance","","",""
"2855.8650000486523","<h2 style=""color:white; text-align:center;"">How calm/excited?</h2> <img class='center' style='height: 300px; width=450px;' src='stim/4622.bmp'><img class='center' src='scale/BlankScaleArousal.png'>","50","html-keyboard-response","99","320286","0.0-2.0-8.8","arousal","","","","","2"
"null","<h2 style=""color:white; text-align:center;"">How calm/excited?</h2> <img class='center' style='height: 300px; width=450px;' src='stim/4622.bmp'><img class='center' src='scale/ArousalScale2.jpg'>","null","html-keyboard-response","100","322288","0.0-2.0-9.8","","","","","",""
"null","<div style=""color:white; font-size:60px;"">+</div>","null","html-keyboard-response","101","323289","0.0-2.0-0.9","fixation","","","","",""
"null","","null","html-keyboard-response","102","326290","0.0-2.0-1.9","","negative","drunkDriving","","",""
"2567.564999917522","<h2 style=""color:white; text-align:center;"">How positive?</h2> <img class='center' style='height: 300px; width=450px;' src='stim/2751.bmp'><img class='center' src='scale/BlankScalePleasant.png'>","49","html-keyboard-response","103","328859","0.0-2.0-2.9","pleasant","","","1","",""
"null","<h2 style=""color:white; text-align:center;"">How positive?</h2> <img class='center' style='height: 300px; width=450px;' src='stim/2751.bmp'><img class='center' src='scale/PleasantScale1.jpg'>","null","html-keyboard-response","104","330862","0.0-2.0-3.9","","","","","",""
"null","","null","html-keyboard-response","105","333865","0.0-2.0-4.9","","negative","drunkDriving","","",""
"990.8949999371544","<h2 style=""color:white; text-align:center;"">How negative?</h2> <img class='center' style='height: 300px; width=450px;' src='stim/2751.bmp'><img class='center' src='scale/BlankScaleUnpleasant.png'>","51","html-keyboard-response","106","334858","0.0-2.0-5.9","unpleasant","","","","3",""
"null","<h2 style=""color:white; text-align:center;"">How negative?</h2> <img class='center' style='height: 300px; width=450px;' src='stim/2751.bmp'><img class='center' src='scale/UnpleasantScale3.jpg'>","null","html-keyboard-response","107","336860","0.0-2.0-6.9","","","","","",""
"null","","null","html-keyboard-response","108","339862","0.0-2.0-7.9","","negative","drunkDriving","","",""
"2976.2650000629947","<h2 style=""color:white; text-align:center;"">How calm/excited?</h2> <img class='center' style='height: 300px; width=450px;' src='stim/2751.bmp'><img class='center' src='scale/BlankScaleArousal.png'>","53","html-keyboard-response","109","342841","0.0-2.0-8.9","arousal","","","","","5"
"null","<h2 style=""color:white; text-align:center;"">How calm/excited?</h2> <img class='center' style='height: 300px; width=450px;' src='stim/2751.bmp'><img class='center' src='scale/ArousalScale5.jpg'>","null","html-keyboard-response","110","344843","0.0-2.0-9.9","","","","","",""
"null","<div style=""color:white; font-size:60px;"">+</div>","null","html-keyboard-response","111","345844","0.0-2.0-0.10","fixation","","","","",""
"null","","null","html-keyboard-response","112","348846","0.0-2.0-1.10","","negative","hospital","","",""
"2459.165000007488","<h2 style=""color:white; text-align:center;"">How positive?</h2> <img class='center' style='height: 300px; width=450px;' src='stim/2205.bmp'><img class='center' src='scale/BlankScalePleasant.png'>","49","html-keyboard-response","113","351307","0.0-2.0-2.10","pleasant","","","1","",""
"null","<h2 style=""color:white; text-align:center;"">How positive?</h2> <img class='center' style='height: 300px; width=450px;' src='stim/2205.bmp'><img class='center' src='scale/PleasantScale1.jpg'>","null","html-keyboard-response","114","353308","0.0-2.0-3.10","","","","","",""
"null","","null","html-keyboard-response","115","356310","0.0-2.0-4.10","","negative","hospital","","",""
"4557.170000043698","<h2 style=""color:white; text-align:center;"">How negative?</h2> <img class='center' style='height: 300px; width=450px;' src='stim/2205.bmp'><img class='center' src='scale/BlankScaleUnpleasant.png'>","52","html-keyboard-response","116","360869","0.0-2.0-5.10","unpleasant","","","","4",""
"null","<h2 style=""color:white; text-align:center;"">How negative?</h2> <img class='center' style='height: 300px; width=450px;' src='stim/2205.bmp'><img class='center' src='scale/UnpleasantScale4.jpg'>","null","html-keyboard-response","117","362871","0.0-2.0-6.10","","","","","",""
"null","","null","html-keyboard-response","118","365873","0.0-2.0-7.10","","negative","hospital","","",""
"2321.959999972023","<h2 style=""color:white; text-align:center;"">How calm/excited?</h2> <img class='center' style='height: 300px; width=450px;' src='stim/2205.bmp'><img class='center' src='scale/BlankScaleArousal.png'>","50","html-keyboard-response","119","368197","0.0-2.0-8.10","arousal","","","","","2"
"null","<h2 style=""color:white; text-align:center;"">How calm/excited?</h2> <img class='center' style='height: 300px; width=450px;' src='stim/2205.bmp'><img class='center' src='scale/ArousalScale2.jpg'>","null","html-keyboard-response","120","370200","0.0-2.0-9.10","","","","","",""
"null","<div style=""color:white; font-size:60px;"">+</div>","null","html-keyboard-response","121","371202","0.0-2.0-0.11","fixation","","","","",""
"null","","null","html-keyboard-response","122","374204","0.0-2.0-1.11","","positive","beach","","",""
"2567.494999966584","<h2 style=""color:white; text-align:center;"">How positive?</h2> <img class='center' style='height: 300px; width=450px;' src='stim/5836.bmp'><img class='center' src='scale/BlankScalePleasant.png'>","51","html-keyboard-response","123","376774","0.0-2.0-2.11","pleasant","","","3","",""
"null","<h2 style=""color:white; text-align:center;"">How positive?</h2> <img class='center' style='height: 300px; width=450px;' src='stim/5836.bmp'><img class='center' src='scale/PleasantScale3.jpg'>","null","html-keyboard-response","124","378776","0.0-2.0-3.11","","","","","",""
"null","","null","html-keyboard-response","125","381778","0.0-2.0-4.11","","positive","beach","","",""
"535.1899999659508","<h2 style=""color:white; text-align:center;"">How negative?</h2> <img class='center' style='height: 300px; width=450px;' src='stim/5836.bmp'><img class='center' src='scale/BlankScaleUnpleasant.png'>","50","html-keyboard-response","126","382315","0.0-2.0-5.11","unpleasant","","","","2",""
"null","<h2 style=""color:white; text-align:center;"">How negative?</h2> <img class='center' style='height: 300px; width=450px;' src='stim/5836.bmp'><img class='center' src='scale/UnpleasantScale2.jpg'>","null","html-keyboard-response","127","384317","0.0-2.0-6.11","","","","","",""
"null","","null","html-keyboard-response","128","387319","0.0-2.0-7.11","","positive","beach","","",""
"484.94999995455146","<h2 style=""color:white; text-align:center;"">How calm/excited?</h2> <img class='center' style='height: 300px; width=450px;' src='stim/5836.bmp'><img class='center' src='scale/BlankScaleArousal.png'>","52","html-keyboard-response","129","387805","0.0-2.0-8.11","arousal","","","","","4"
"null","<h2 style=""color:white; text-align:center;"">How calm/excited?</h2> <img class='center' style='height: 300px; width=450px;' src='stim/5836.bmp'><img class='center' src='scale/ArousalScale4.jpg'>","null","html-keyboard-response","130","389807","0.0-2.0-9.11","","","","","",""
"null","<div style=""color:white; font-size:60px;"">+</div>","null","html-keyboard-response","131","390809","0.0-2.0-0.12","fixation","","","","",""
"null","","null","html-keyboard-response","132","393812","0.0-2.0-1.12","","positive","couple","","",""
"3201.1599999386817","<h2 style=""color:white; text-align:center;"">How positive?</h2> <img class='center' style='height: 300px; width=450px;' src='stim/4612.bmp'><img class='center' src='scale/BlankScalePleasant.png'>","51","html-keyboard-response","133","397015","0.0-2.0-2.12","pleasant","","","3","",""
"null","<h2 style=""color:white; text-align:center;"">How positive?</h2> <img class='center' style='height: 300px; width=450px;' src='stim/4612.bmp'><img class='center' src='scale/PleasantScale3.jpg'>","null","html-keyboard-response","134","399017","0.0-2.0-3.12","","","","","",""
"null","","null","html-keyboard-response","135","402019","0.0-2.0-4.12","","positive","couple","","",""
"1134.2050000093877","<h2 style=""color:white; text-align:center;"">How negative?</h2> <img class='center' style='height: 300px; width=450px;' src='stim/4612.bmp'><img class='center' src='scale/BlankScaleUnpleasant.png'>","49","html-keyboard-response","136","403154","0.0-2.0-5.12","unpleasant","","","","1",""
"null","<h2 style=""color:white; text-align:center;"">How negative?</h2> <img class='center' style='height: 300px; width=450px;' src='stim/4612.bmp'><img class='center' src='scale/UnpleasantScale1.jpg'>","null","html-keyboard-response","137","405157","0.0-2.0-6.12","","","","","",""
"null","","null","html-keyboard-response","138","408159","0.0-2.0-7.12","","positive","couple","","",""
"2285.6250000186265","<h2 style=""color:white; text-align:center;"">How calm/excited?</h2> <img class='center' style='height: 300px; width=450px;' src='stim/4612.bmp'><img class='center' src='scale/BlankScaleArousal.png'>","49","html-keyboard-response","139","410446","0.0-2.0-8.12","arousal","","","","","1"
"null","<h2 style=""color:white; text-align:center;"">How calm/excited?</h2> <img class='center' style='height: 300px; width=450px;' src='stim/4612.bmp'><img class='center' src='scale/ArousalScale1.jpg'>","null","html-keyboard-response","140","412448","0.0-2.0-9.12","","","","","",""
"null","<div style=""color:white; font-size:60px;"">+</div>","null","html-keyboard-response","141","413450","0.0-2.0-0.13","fixation","","","","",""
"null","","null","html-keyboard-response","142","416452","0.0-2.0-1.13","","neutral","boat","","",""
"1832.6700000325218","<h2 style=""color:white; text-align:center;"">How positive?</h2> <img class='center' style='height: 300px; width=450px;' src='stim/5395.bmp'><img class='center' src='scale/BlankScalePleasant.png'>","49","html-keyboard-response","143","418286","0.0-2.0-2.13","pleasant","","","1","",""
"null","<h2 style=""color:white; text-align:center;"">How positive?</h2> <img class='center' style='height: 300px; width=450px;' src='stim/5395.bmp'><img class='center' src='scale/PleasantScale1.jpg'>","null","html-keyboard-response","144","420289","0.0-2.0-3.13","","","","","",""
"null","","null","html-keyboard-response","145","423291","0.0-2.0-4.13","","neutral","boat","","",""
"525.7299999939278","<h2 style=""color:white; text-align:center;"">How negative?</h2> <img class='center' style='height: 300px; width=450px;' src='stim/5395.bmp'><img class='center' src='scale/BlankScaleUnpleasant.png'>","50","html-keyboard-response","146","423818","0.0-2.0-5.13","unpleasant","","","","2",""
"null","<h2 style=""color:white; text-align:center;"">How negative?</h2> <img class='center' style='height: 300px; width=450px;' src='stim/5395.bmp'><img class='center' src='scale/UnpleasantScale2.jpg'>","null","html-keyboard-response","147","425821","0.0-2.0-6.13","","","","","",""
"null","","null","html-keyboard-response","148","428823","0.0-2.0-7.13","","neutral","boat","","",""
"1346.8400000128895","<h2 style=""color:white; text-align:center;"">How calm/excited?</h2> <img class='center' style='height: 300px; width=450px;' src='stim/5395.bmp'><img class='center' src='scale/BlankScaleArousal.png'>","51","html-keyboard-response","149","430172","0.0-2.0-8.13","arousal","","","","","3"
"null","<h2 style=""color:white; text-align:center;"">How calm/excited?</h2> <img class='center' style='height: 300px; width=450px;' src='stim/5395.bmp'><img class='center' src='scale/ArousalScale3.jpg'>","null","html-keyboard-response","150","432174","0.0-2.0-9.13","","","","","",""
"null","<div style=""color:white; font-size:60px;"">+</div>","null","html-keyboard-response","151","433175","0.0-2.0-0.14","fixation","","","","",""
"null","","null","html-keyboard-response","152","436178","0.0-2.0-1.14","","negative","dyingMan","","",""
"1532.1299999486655","<h2 style=""color:white; text-align:center;"">How positive?</h2> <img class='center' style='height: 300px; width=450px;' src='stim/3230.bmp'><img class='center' src='scale/BlankScalePleasant.png'>","49","html-keyboard-response","153","437713","0.0-2.0-2.14","pleasant","","","1","",""
"null","<h2 style=""color:white; text-align:center;"">How positive?</h2> <img class='center' style='height: 300px; width=450px;' src='stim/3230.bmp'><img class='center' src='scale/PleasantScale1.jpg'>","null","html-keyboard-response","154","439716","0.0-2.0-3.14","","","","","",""
"null","","null","html-keyboard-response","155","442718","0.0-2.0-4.14","","negative","dyingMan","","",""
"968.1649999693036","<h2 style=""color:white; text-align:center;"">How negative?</h2> <img class='center' style='height: 300px; width=450px;' src='stim/3230.bmp'><img class='center' src='scale/BlankScaleUnpleasant.png'>","52","html-keyboard-response","156","443688","0.0-2.0-5.14","unpleasant","","","","4",""
"null","<h2 style=""color:white; text-align:center;"">How negative?</h2> <img class='center' style='height: 300px; width=450px;' src='stim/3230.bmp'><img class='center' src='scale/UnpleasantScale4.jpg'>","null","html-keyboard-response","157","445690","0.0-2.0-6.14","","","","","",""
"null","","null","html-keyboard-response","158","448694","0.0-2.0-7.14","","negative","dyingMan","","",""
"3043.195000034757","<h2 style=""color:white; text-align:center;"">How calm/excited?</h2> <img class='center' style='height: 300px; width=450px;' src='stim/3230.bmp'><img class='center' src='scale/BlankScaleArousal.png'>","50","html-keyboard-response","159","451739","0.0-2.0-8.14","arousal","","","","","2"
"null","<h2 style=""color:white; text-align:center;"">How calm/excited?</h2> <img class='center' style='height: 300px; width=450px;' src='stim/3230.bmp'><img class='center' src='scale/ArousalScale2.jpg'>","null","html-keyboard-response","160","453741","0.0-2.0-9.14","","","","","",""
"null","<div style=""color:white; font-size:60px;"">+</div>","null","html-keyboard-response","161","454743","0.0-2.0-0.15","fixation","","","","",""
"null","","null","html-keyboard-response","162","457745","0.0-2.0-1.15","","neutral","spoon","","",""
"4154.729999951087","<h2 style=""color:white; text-align:center;"">How positive?</h2> <img class='center' style='height: 300px; width=450px;' src='stim/7004.bmp'><img class='center' src='scale/BlankScalePleasant.png'>","49","html-keyboard-response","163","461902","0.0-2.0-2.15","pleasant","","","1","",""
"null","<h2 style=""color:white; text-align:center;"">How positive?</h2> <img class='center' style='height: 300px; width=450px;' src='stim/7004.bmp'><img class='center' src='scale/PleasantScale1.jpg'>","null","html-keyboard-response","164","463905","0.0-2.0-3.15","","","","","",""
"null","","null","html-keyboard-response","165","466907","0.0-2.0-4.15","","neutral","spoon","","",""
"653.3050000434741","<h2 style=""color:white; text-align:center;"">How negative?</h2> <img class='center' style='height: 300px; width=450px;' src='stim/7004.bmp'><img class='center' src='scale/BlankScaleUnpleasant.png'>","49","html-keyboard-response","166","467562","0.0-2.0-5.15","unpleasant","","","","1",""
"null","<h2 style=""color:white; text-align:center;"">How negative?</h2> <img class='center' style='height: 300px; width=450px;' src='stim/7004.bmp'><img class='center' src='scale/UnpleasantScale1.jpg'>","null","html-keyboard-response","167","469564","0.0-2.0-6.15","","","","","",""
"null","","null","html-keyboard-response","168","472566","0.0-2.0-7.15","","neutral","spoon","","",""
"967.560000019148","<h2 style=""color:white; text-align:center;"">How calm/excited?</h2> <img class='center' style='height: 300px; width=450px;' src='stim/7004.bmp'><img class='center' src='scale/BlankScaleArousal.png'>","51","html-keyboard-response","169","473535","0.0-2.0-8.15","arousal","","","","","3"
"null","<h2 style=""color:white; text-align:center;"">How calm/excited?</h2> <img class='center' style='height: 300px; width=450px;' src='stim/7004.bmp'><img class='center' src='scale/ArousalScale3.jpg'>","null","html-keyboard-response","170","475538","0.0-2.0-9.15","","","","","",""
"null","<div style=""color:white; font-size:60px;"">+</div>","null","html-keyboard-response","171","476540","0.0-2.0-0.16","fixation","","","","",""
"null","","null","html-keyboard-response","172","479542","0.0-2.0-1.16","","positive","rollercoaster","","",""
"1952.4100000271574","<h2 style=""color:white; text-align:center;"">How positive?</h2> <img class='center' style='height: 300px; width=450px;' src='stim/8492.bmp'><img class='center' src='scale/BlankScalePleasant.png'>","53","html-keyboard-response","173","481497","0.0-2.0-2.16","pleasant","","","5","",""
"null","<h2 style=""color:white; text-align:center;"">How positive?</h2> <img class='center' style='height: 300px; width=450px;' src='stim/8492.bmp'><img class='center' src='scale/PleasantScale5.jpg'>","null","html-keyboard-response","174","483499","0.0-2.0-3.16","","","","","",""
"null","","null","html-keyboard-response","175","486502","0.0-2.0-4.16","","positive","rollercoaster","","",""
"2429.4849999714643","<h2 style=""color:white; text-align:center;"">How negative?</h2> <img class='center' style='height: 300px; width=450px;' src='stim/8492.bmp'><img class='center' src='scale/BlankScaleUnpleasant.png'>","49","html-keyboard-response","176","488933","0.0-2.0-5.16","unpleasant","","","","1",""
"null","<h2 style=""color:white; text-align:center;"">How negative?</h2> <img class='center' style='height: 300px; width=450px;' src='stim/8492.bmp'><img class='center' src='scale/UnpleasantScale1.jpg'>","null","html-keyboard-response","177","490935","0.0-2.0-6.16","","","","","",""
"null","","null","html-keyboard-response","178","493937","0.0-2.0-7.16","","positive","rollercoaster","","",""
"2266.4050000021234","<h2 style=""color:white; text-align:center;"">How calm/excited?</h2> <img class='center' style='height: 300px; width=450px;' src='stim/8492.bmp'><img class='center' src='scale/BlankScaleArousal.png'>","53","html-keyboard-response","179","496205","0.0-2.0-8.16","arousal","","","","","5"
"null","<h2 style=""color:white; text-align:center;"">How calm/excited?</h2> <img class='center' style='height: 300px; width=450px;' src='stim/8492.bmp'><img class='center' src='scale/ArousalScale5.jpg'>","null","html-keyboard-response","180","498207","0.0-2.0-9.16","","","","","",""
"null","<div style=""color:white; font-size:60px;"">+</div>","null","html-keyboard-response","181","499209","0.0-2.0-0.17","fixation","","","","",""
"null","","null","html-keyboard-response","182","502212","0.0-2.0-1.17","","neutral","chess","","",""
"2470.0449999654666","<h2 style=""color:white; text-align:center;"">How positive?</h2> <img class='center' style='height: 300px; width=450px;' src='stim/2840.bmp'><img class='center' src='scale/BlankScalePleasant.png'>","50","html-keyboard-response","183","504684","0.0-2.0-2.17","pleasant","","","2","",""
"null","<h2 style=""color:white; text-align:center;"">How positive?</h2> <img class='center' style='height: 300px; width=450px;' src='stim/2840.bmp'><img class='center' src='scale/PleasantScale2.jpg'>","null","html-keyboard-response","184","506687","0.0-2.0-3.17","","","","","",""
"null","","null","html-keyboard-response","185","509690","0.0-2.0-4.17","","neutral","chess","","",""
"3308.8800000259653","<h2 style=""color:white; text-align:center;"">How negative?</h2> <img class='center' style='height: 300px; width=450px;' src='stim/2840.bmp'><img class='center' src='scale/BlankScaleUnpleasant.png'>","51","html-keyboard-response","186","513001","0.0-2.0-5.17","unpleasant","","","","3",""
"null","<h2 style=""color:white; text-align:center;"">How negative?</h2> <img class='center' style='height: 300px; width=450px;' src='stim/2840.bmp'><img class='center' src='scale/UnpleasantScale3.jpg'>","null","html-keyboard-response","187","515003","0.0-2.0-6.17","","","","","",""
"null","","null","html-keyboard-response","188","518006","0.0-2.0-7.17","","neutral","chess","","",""
"1140.7950000138953","<h2 style=""color:white; text-align:center;"">How calm/excited?</h2> <img class='center' style='height: 300px; width=450px;' src='stim/2840.bmp'><img class='center' src='scale/BlankScaleArousal.png'>","49","html-keyboard-response","189","519149","0.0-2.0-8.17","arousal","","","","","1"
"null","<h2 style=""color:white; text-align:center;"">How calm/excited?</h2> <img class='center' style='height: 300px; width=450px;' src='stim/2840.bmp'><img class='center' src='scale/ArousalScale1.jpg'>","null","html-keyboard-response","190","521151","0.0-2.0-9.17","","","","","",""
"null","<div style=""color:white; font-size:60px;"">+</div>","null","html-keyboard-response","191","522153","0.0-2.0-0.18","fixation","","","","",""
"null","","null","html-keyboard-response","192","525155","0.0-2.0-1.18","","positive","puppies","","",""
"1657.645000028424","<h2 style=""color:white; text-align:center;"">How positive?</h2> <img class='center' style='height: 300px; width=450px;' src='stim/1710.bmp'><img class='center' src='scale/BlankScalePleasant.png'>","53","html-keyboard-response","193","526815","0.0-2.0-2.18","pleasant","","","5","",""
"null","<h2 style=""color:white; text-align:center;"">How positive?</h2> <img class='center' style='height: 300px; width=450px;' src='stim/1710.bmp'><img class='center' src='scale/PleasantScale5.jpg'>","null","html-keyboard-response","194","528818","0.0-2.0-3.18","","","","","",""
"null","","null","html-keyboard-response","195","531820","0.0-2.0-4.18","","positive","puppies","","",""
"1386.1949999118224","<h2 style=""color:white; text-align:center;"">How negative?</h2> <img class='center' style='height: 300px; width=450px;' src='stim/1710.bmp'><img class='center' src='scale/BlankScaleUnpleasant.png'>","49","html-keyboard-response","196","533208","0.0-2.0-5.18","unpleasant","","","","1",""
"null","<h2 style=""color:white; text-align:center;"">How negative?</h2> <img class='center' style='height: 300px; width=450px;' src='stim/1710.bmp'><img class='center' src='scale/UnpleasantScale1.jpg'>","null","html-keyboard-response","197","535211","0.0-2.0-6.18","","","","","",""
"null","","null","html-keyboard-response","198","538214","0.0-2.0-7.18","","positive","puppies","","",""
"636.1600001109764","<h2 style=""color:white; text-align:center;"">How calm/excited?</h2> <img class='center' style='height: 300px; width=450px;' src='stim/1710.bmp'><img class='center' src='scale/BlankScaleArousal.png'>","52","html-keyboard-response","199","538852","0.0-2.0-8.18","arousal","","","","","4"
"null","<h2 style=""color:white; text-align:center;"">How calm/excited?</h2> <img class='center' style='height: 300px; width=450px;' src='stim/1710.bmp'><img class='center' src='scale/ArousalScale4.jpg'>","null","html-keyboard-response","200","540853","0.0-2.0-9.18","","","","","",""
"null","<div style=""color:white; font-size:60px;"">+</div>","null","html-keyboard-response","201","541855","0.0-2.0-0.19","fixation","","","","",""
"null","","null","html-keyboard-response","202","544857","0.0-2.0-1.19","","neutral","rollingPin","","",""
"1141.6500000050291","<h2 style=""color:white; text-align:center;"">How positive?</h2> <img class='center' style='height: 300px; width=450px;' src='stim/7000.bmp'><img class='center' src='scale/BlankScalePleasant.png'>","49","html-keyboard-response","203","546000","0.0-2.0-2.19","pleasant","","","1","",""
"null","<h2 style=""color:white; text-align:center;"">How positive?</h2> <img class='center' style='height: 300px; width=450px;' src='stim/7000.bmp'><img class='center' src='scale/PleasantScale1.jpg'>","null","html-keyboard-response","204","548003","0.0-2.0-3.19","","","","","",""
"null","","null","html-keyboard-response","205","551005","0.0-2.0-4.19","","neutral","rollingPin","","",""
"355.8250000933185","<h2 style=""color:white; text-align:center;"">How negative?</h2> <img class='center' style='height: 300px; width=450px;' src='stim/7000.bmp'><img class='center' src='scale/BlankScaleUnpleasant.png'>","49","html-keyboard-response","206","551362","0.0-2.0-5.19","unpleasant","","","","1",""
"null","<h2 style=""color:white; text-align:center;"">How negative?</h2> <img class='center' style='height: 300px; width=450px;' src='stim/7000.bmp'><img class='center' src='scale/UnpleasantScale1.jpg'>","null","html-keyboard-response","207","553365","0.0-2.0-6.19","","","","","",""
"null","","null","html-keyboard-response","208","556367","0.0-2.0-7.19","","neutral","rollingPin","","",""
"4187.035000068136","<h2 style=""color:white; text-align:center;"">How calm/excited?</h2> <img class='center' style='height: 300px; width=450px;' src='stim/7000.bmp'><img class='center' src='scale/BlankScaleArousal.png'>","49","html-keyboard-response","209","560556","0.0-2.0-8.19","arousal","","","","","1"
"null","<h2 style=""color:white; text-align:center;"">How calm/excited?</h2> <img class='center' style='height: 300px; width=450px;' src='stim/7000.bmp'><img class='center' src='scale/ArousalScale1.jpg'>","null","html-keyboard-response","210","562558","0.0-2.0-9.19","","","","","",""
"null","<div style=""color:white; font-size:60px;"">+</div>","null","html-keyboard-response","211","563560","0.0-2.0-0.20","fixation","","","","",""
"null","","null","html-keyboard-response","212","566562","0.0-2.0-1.20","","neutral","bridge","","",""
"2220.310000004247","<h2 style=""color:white; text-align:center;"">How positive?</h2> <img class='center' style='height: 300px; width=450px;' src='stim/7547.bmp'><img class='center' src='scale/BlankScalePleasant.png'>","49","html-keyboard-response","213","568783","0.0-2.0-2.20","pleasant","","","1","",""
"null","<h2 style=""color:white; text-align:center;"">How positive?</h2> <img class='center' style='height: 300px; width=450px;' src='stim/7547.bmp'><img class='center' src='scale/PleasantScale1.jpg'>","null","html-keyboard-response","214","570786","0.0-2.0-3.20","","","","","",""
"null","","null","html-keyboard-response","215","573789","0.0-2.0-4.20","","neutral","bridge","","",""
"1948.4200000297278","<h2 style=""color:white; text-align:center;"">How negative?</h2> <img class='center' style='height: 300px; width=450px;' src='stim/7547.bmp'><img class='center' src='scale/BlankScaleUnpleasant.png'>","49","html-keyboard-response","216","575739","0.0-2.0-5.20","unpleasant","","","","1",""
"null","<h2 style=""color:white; text-align:center;"">How negative?</h2> <img class='center' style='height: 300px; width=450px;' src='stim/7547.bmp'><img class='center' src='scale/UnpleasantScale1.jpg'>","null","html-keyboard-response","217","577741","0.0-2.0-6.20","","","","","",""
"null","","null","html-keyboard-response","218","580744","0.0-2.0-7.20","","neutral","bridge","","",""
"3469.1849999362603","<h2 style=""color:white; text-align:center;"">How calm/excited?</h2> <img class='center' style='height: 300px; width=450px;' src='stim/7547.bmp'><img class='center' src='scale/BlankScaleArousal.png'>","51","html-keyboard-response","219","584215","0.0-2.0-8.20","arousal","","","","","3"
"null","<h2 style=""color:white; text-align:center;"">How calm/excited?</h2> <img class='center' style='height: 300px; width=450px;' src='stim/7547.bmp'><img class='center' src='scale/ArousalScale3.jpg'>","null","html-keyboard-response","220","586217","0.0-2.0-9.20","","","","","",""
"null","<div style=""color:white; font-size:60px;"">+</div>","null","html-keyboard-response","221","587218","0.0-2.0-0.21","fixation","","","","",""
"null","","null","html-keyboard-response","222","590220","0.0-2.0-1.21","","negative","carAccident","","",""
"1684.9850000580773","<h2 style=""color:white; text-align:center;"">How positive?</h2> <img class='center' style='height: 300px; width=450px;' src='stim/9910.bmp'><img class='center' src='scale/BlankScalePleasant.png'>","49","html-keyboard-response","223","591907","0.0-2.0-2.21","pleasant","","","1","",""
"null","<h2 style=""color:white; text-align:center;"">How positive?</h2> <img class='center' style='height: 300px; width=450px;' src='stim/9910.bmp'><img class='center' src='scale/PleasantScale1.jpg'>","null","html-keyboard-response","224","593909","0.0-2.0-3.21","","","","","",""
"null","","null","html-keyboard-response","225","596911","0.0-2.0-4.21","","negative","carAccident","","",""
"2187.9099999787286","<h2 style=""color:white; text-align:center;"">How negative?</h2> <img class='center' style='height: 300px; width=450px;' src='stim/9910.bmp'><img class='center' src='scale/BlankScaleUnpleasant.png'>","52","html-keyboard-response","226","599101","0.0-2.0-5.21","unpleasant","","","","4",""
"null","<h2 style=""color:white; text-align:center;"">How negative?</h2> <img class='center' style='height: 300px; width=450px;' src='stim/9910.bmp'><img class='center' src='scale/UnpleasantScale4.jpg'>","null","html-keyboard-response","227","601103","0.0-2.0-6.21","","","","","",""
"null","","null","html-keyboard-response","228","604105","0.0-2.0-7.21","","negative","carAccident","","",""
"4178.599999984726","<h2 style=""color:white; text-align:center;"">How calm/excited?</h2> <img class='center' style='height: 300px; width=450px;' src='stim/9910.bmp'><img class='center' src='scale/BlankScaleArousal.png'>","52","html-keyboard-response","229","608285","0.0-2.0-8.21","arousal","","","","","4"
"null","<h2 style=""color:white; text-align:center;"">How calm/excited?</h2> <img class='center' style='height: 300px; width=450px;' src='stim/9910.bmp'><img class='center' src='scale/ArousalScale4.jpg'>","null","html-keyboard-response","230","610287","0.0-2.0-9.21","","","","","",""
"null","<div style=""color:white; font-size:60px;"">+</div>","null","html-keyboard-response","231","611289","0.0-2.0-0.22","fixation","","","","",""
"null","","null","html-keyboard-response","232","614292","0.0-2.0-1.22","","negative","cryingWoman","","",""
"3739.519999944605","<h2 style=""color:white; text-align:center;"">How positive?</h2> <img class='center' style='height: 300px; width=450px;' src='stim/9332.bmp'><img class='center' src='scale/BlankScalePleasant.png'>","49","html-keyboard-response","233","618033","0.0-2.0-2.22","pleasant","","","1","",""
"null","<h2 style=""color:white; text-align:center;"">How positive?</h2> <img class='center' style='height: 300px; width=450px;' src='stim/9332.bmp'><img class='center' src='scale/PleasantScale1.jpg'>","null","html-keyboard-response","234","620037","0.0-2.0-3.22","","","","","",""
"null","","null","html-keyboard-response","235","623040","0.0-2.0-4.22","","negative","cryingWoman","","",""
"408.8950000004843","<h2 style=""color:white; text-align:center;"">How negative?</h2> <img class='center' style='height: 300px; width=450px;' src='stim/9332.bmp'><img class='center' src='scale/BlankScaleUnpleasant.png'>","53","html-keyboard-response","236","623451","0.0-2.0-5.22","unpleasant","","","","5",""
"null","<h2 style=""color:white; text-align:center;"">How negative?</h2> <img class='center' style='height: 300px; width=450px;' src='stim/9332.bmp'><img class='center' src='scale/UnpleasantScale5.jpg'>","null","html-keyboard-response","237","625453","0.0-2.0-6.22","","","","","",""
"null","","null","html-keyboard-response","238","628456","0.0-2.0-7.22","","negative","cryingWoman","","",""
"2700.029999949038","<h2 style=""color:white; text-align:center;"">How calm/excited?</h2> <img class='center' style='height: 300px; width=450px;' src='stim/9332.bmp'><img class='center' src='scale/BlankScaleArousal.png'>","50","html-keyboard-response","239","631158","0.0-2.0-8.22","arousal","","","","","2"
"null","<h2 style=""color:white; text-align:center;"">How calm/excited?</h2> <img class='center' style='height: 300px; width=450px;' src='stim/9332.bmp'><img class='center' src='scale/ArousalScale2.jpg'>","null","html-keyboard-response","240","633160","0.0-2.0-9.22","","","","","",""
"null","<div style=""color:white; font-size:60px;"">+</div>","null","html-keyboard-response","241","634161","0.0-2.0-0.23","fixation","","","","",""
"null","","null","html-keyboard-response","242","637164","0.0-2.0-1.23","","neutral","basket","","",""
"1600.3000000491738","<h2 style=""color:white; text-align:center;"">How positive?</h2> <img class='center' style='height: 300px; width=450px;' src='stim/7010.bmp'><img class='center' src='scale/BlankScalePleasant.png'>","49","html-keyboard-response","243","638767","0.0-2.0-2.23","pleasant","","","1","",""
"null","<h2 style=""color:white; text-align:center;"">How positive?</h2> <img class='center' style='height: 300px; width=450px;' src='stim/7010.bmp'><img class='center' src='scale/PleasantScale1.jpg'>","null","html-keyboard-response","244","640769","0.0-2.0-3.23","","","","","",""
"null","","null","html-keyboard-response","245","643772","0.0-2.0-4.23","","neutral","basket","","",""
"1219.4150000577793","<h2 style=""color:white; text-align:center;"">How negative?</h2> <img class='center' style='height: 300px; width=450px;' src='stim/7010.bmp'><img class='center' src='scale/BlankScaleUnpleasant.png'>","49","html-keyboard-response","246","644993","0.0-2.0-5.23","unpleasant","","","","1",""
"null","<h2 style=""color:white; text-align:center;"">How negative?</h2> <img class='center' style='height: 300px; width=450px;' src='stim/7010.bmp'><img class='center' src='scale/UnpleasantScale1.jpg'>","null","html-keyboard-response","247","646996","0.0-2.0-6.23","","","","","",""
"null","","null","html-keyboard-response","248","649998","0.0-2.0-7.23","","neutral","basket","","",""
"618.419999955222","<h2 style=""color:white; text-align:center;"">How calm/excited?</h2> <img class='center' style='height: 300px; width=450px;' src='stim/7010.bmp'><img class='center' src='scale/BlankScaleArousal.png'>","50","html-keyboard-response","249","650619","0.0-2.0-8.23","arousal","","","","","2"
"null","<h2 style=""color:white; text-align:center;"">How calm/excited?</h2> <img class='center' style='height: 300px; width=450px;' src='stim/7010.bmp'><img class='center' src='scale/ArousalScale2.jpg'>","null","html-keyboard-response","250","652621","0.0-2.0-9.23","","","","","",""
"null","<p style='color:white;'>You have completed this task. Please wait for the experimenter to continue.</p><p style='color:white;'>Data Saving...Do not close this window until the text dissapears.</p>","null","html-keyboard-response","251","662625","0.0-3.0","","","","","",""
