"rt","stimulus","key_press","trial_type","trial_index","time_elapsed","internal_node_id","test_part","values","sum","mean","median","min","max","count","variance","sd","frequencies","all","subset"
"949.6550000003481","<h1 style=""color:white;"">Welcome to the experiment!</h1><p style=""color:white;"">Press any key to begin.</p>","32","html-keyboard-response","0","952","0.0-0.0","","","","","","","","","","","","",""
"247.61500000022352","<h2 style=""color:white;"">You will now see a series of pictures. </h2><h3 style=""color:white;"">Some of the pictures will be <b>positive</b>, like pictures of babies.   </h3><h3 style=""color:white;"">Some will be <b>negative</b>, like pictures of sharks or sad people. </h3><h3 style=""color:white;""> Some will be <b>neutral</b>, like pictures of a clock or desk.</h3><p style=""color:white;""> Press the spacebar to continue.</p>","32","html-keyboard-response","1","1200","0.0-1.0-0.0","","","","","","","","","","","","",""
"167.03500000041095","<h2 style=""color:white;"">We want you to tell us how each picture makes you <b>feel</b>.</h2> <h3 style=""color:white;"">You will make <b>3 ratings</b> for each picture.</h3> <p style=""color:white;""> Press the spacebar to continue.</p>","32","html-keyboard-response","2","1368","0.0-1.0-1.0","","","","","","","","","","","","",""
"150.97500000047148","<h2 style=""color:white;"">The first rating you will be asked to make is a rating of how <b>pleasant</b> you feel when you see the photo.</h2> <h3 style=""color:white;""><b>""Pleasantness""</b>  refers to how <b>happy</b> or <b>good</b> you feel when you see each photo and how much you like looking at it.</h3> <p style=""color:white;""> Press the spacebar to continue.</p>","32","html-keyboard-response","3","1519","0.0-1.0-2.0","","","","","","","","","","","","",""
"96.23000000009779","<h2 style=""color:white;""><b>Pleasantness</b></h2> <h3 style=""color:white;"">This is the <b>pleasantness scale</b> that you will use to rate how <b>positive</b> you feel when you see each picture.</h3><img class='center' style='width:453px; height:215px;' src='scale/BlankScalePleasant.png'></img><p style=""color:white;""> Press the spacebar to continue.</p>","32","html-keyboard-response","4","1616","0.0-1.0-3.0","","","","","","","","","","","","",""
"128.72500000047148","<h2 style=""color:white;"">The second rating you will be asked to make is a rating of how <b>unpleasant</b> you feel when you see the photo.</h2> <h3 style=""color:white;""><b>""Unpleasantness""</b> refers to how <b>bad</b> or <b>unhappy</b> you feel when you see each photo.</h3><p style=""color:white;""> Press the spacebar to continue.</p>","32","html-keyboard-response","5","1745","0.0-1.0-4.0","","","","","","","","","","","","",""
"280.86500000063097","<h2 style=""color:white;""><b>Unpleasantness</b></h2> <h3 style=""color:white;"">This is the <b>unpleasantness scale</b> that you will use to rate how <b>negative</b> you feel when you see each picture.</h3><img class='center' style='width:451px; height:211px;' src='scale/BlankScaleUnpleasant.png'></img><p style=""color:white;""> Press the spacebar to continue.</p>","32","html-keyboard-response","6","2027","0.0-1.0-5.0","","","","","","","","","","","","",""
"96.30000000016298","<h2 style=""color:white;"">You should decide how to rate each photo on the basis of how <b>pleasant</b> or <b>unpleasant</b> you feel when you see it.</h2> <h3 style=""color:white;"">There are no ""right"" or ""wrong"" answers for rating the photos.</h3> <h3 style=""color:white;"">Just go by how much you like or dislike each one.</h3> <p style=""color:white;""> Press the spacebar to continue.</p>","32","html-keyboard-response","7","2124","0.0-1.0-6.0","","","","","","","","","","","","",""
"110.77500000008149","<h2 style=""color:white;"">The third rating you will be asked to make is a rating of how <b>arousing</b> or <b>exciting</b> each picture makes you feel.</h2> <h3 style=""color:white;""><b>""Arousing""</b> refers to how <b>excited</b> or <b>keyed-up</b> the photo makes you feel.<h3><h3 style=""color:white;"">Some of the pictures will be <b>highly arousing</b> and some will make you feel more <b>calm</b> or <b>sleepy</b>.</h3> <p style=""color:white;""> Press the spacebar to continue.</p>","32","html-keyboard-response","8","2235","0.0-1.0-7.0","","","","","","","","","","","","",""
"91.99499999979162","<h2 style=""color:white;""><b>Arousal</b></h2> <p style=""color:white;"">This is the <b>arousal scale</b> that you will use to rate how <b>calm to excited</b> you feel when you see each picture.</p><img class='center' style='width:538px; height:222px;' src='scale/BlankScaleArousal.png'></img><p style=""color:white;""> Press the spacebar to continue.</p>","32","html-keyboard-response","9","2328","0.0-1.0-8.0","","","","","","","","","","","","",""
"109.00500000023749","<h2 style=""color:white;"">Now we will have you rate some pictures for how <b>positive</b>, how <b>negative</b>, and how <b>arousing</b> they make you feel.</h2> <h3 style=""color:white;"">Please press the number on top of your keybaord that corresponds to your choice.</h3> <p style=""color:white;""> Press the spacebar to continue.</p>","32","html-keyboard-response","10","2438","0.0-1.0-9.0","","","","","","","","","","","","",""
"null","<div style=""color:white; font-size:60px;"">+</div>","null","html-keyboard-response","11","3439","0.0-2.0-0.0","fixation","","","","","","","","","","","",""
"null","","null","html-keyboard-response","12","6445","0.0-2.0-1.0","","","","","","","","","","","","",""
"283.89499999958207","<h2 style=""color:white; text-align:center;"">How pleasant?</h2> <img class='center' style='height: 300px; width=450px;' src='stim/2205.bmp'><img class='center' src='scale/BlankScalePleasant.png'>","49","html-keyboard-response","13","6733","0.0-2.0-2.0","","","0","NaN","","Infinity","-Infinity","0","0","0","[object Object]","true","[object Object]"
"null","<h2 style=""color:white; text-align:center;"">How pleasant?</h2> <img class='center' style='height: 300px; width=450px;' src='stim/2205.bmp'><img class='center' src='scale/PleasantScale1.jpg'>","null","html-keyboard-response","14","8739","0.0-2.0-3.0","","","0","NaN","","Infinity","-Infinity","0","0","0","[object Object]","true","[object Object]"
"null","","null","html-keyboard-response","15","11743","0.0-2.0-4.0","","","","","","","","","","","","",""
"247.71500000043306","<h2 style=""color:white; text-align:center;"">How unpleasant?</h2> <img class='center' style='height: 300px; width=450px;' src='stim/2205.bmp'><img class='center' src='scale/BlankScaleUnpleasant.png'>","49","html-keyboard-response","16","11993","0.0-2.0-5.0","","","0","NaN","","Infinity","-Infinity","0","0","0","[object Object]","true","[object Object]"
"null","<h2 style=""color:white; text-align:center;"">How unpleasant?</h2> <img class='center' style='height: 300px; width=450px;' src='stim/2205.bmp'><img class='center' src='scale/UnpleasantScale1.jpg'>","null","html-keyboard-response","17","13999","0.0-2.0-6.0","","","0","NaN","","Infinity","-Infinity","0","0","0","[object Object]","true","[object Object]"
"null","","null","html-keyboard-response","18","17003","0.0-2.0-7.0","","","","","","","","","","","","",""
"249.33000000054017","<h2 style=""color:white; text-align:center;"">How arousing/exciting?</h2> <img class='center' style='height: 300px; width=450px;' src='stim/2205.bmp'><img class='center' src='scale/BlankScaleArousal.png'>","49","html-keyboard-response","19","17254","0.0-2.0-8.0","","","0","NaN","","Infinity","-Infinity","0","0","0","[object Object]","true","[object Object]"
"null","<h2 style=""color:white; text-align:center;"">How arousing/exciting?</h2> <img class='center' style='height: 300px; width=450px;' src='stim/2205.bmp'><img class='center' src='scale/ArousalScale1.jpg'>","null","html-keyboard-response","20","19260","0.0-2.0-9.0","","","0","NaN","","Infinity","-Infinity","0","0","0","[object Object]","true","[object Object]"
"null","<div style=""color:white; font-size:60px;"">+</div>","null","html-keyboard-response","21","20265","0.0-2.0-0.1","fixation","","","","","","","","","","","",""
"null","","null","html-keyboard-response","22","23270","0.0-2.0-1.1","","","","","","","","","","","","",""
"337.9949999998207","<h2 style=""color:white; text-align:center;"">How pleasant?</h2> <img class='center' style='height: 300px; width=450px;' src='stim/1710.bmp'><img class='center' src='scale/BlankScalePleasant.png'>","49","html-keyboard-response","23","23610","0.0-2.0-2.1","","","0","NaN","","Infinity","-Infinity","0","0","0","[object Object]","true","[object Object]"
"null","<h2 style=""color:white; text-align:center;"">How pleasant?</h2> <img class='center' style='height: 300px; width=450px;' src='stim/1710.bmp'><img class='center' src='scale/PleasantScale1.jpg'>","null","html-keyboard-response","24","25617","0.0-2.0-3.1","","","0","NaN","","Infinity","-Infinity","0","0","0","[object Object]","true","[object Object]"
"null","","null","html-keyboard-response","25","28621","0.0-2.0-4.1","","","","","","","","","","","","",""
"348.6400000001304","<h2 style=""color:white; text-align:center;"">How unpleasant?</h2> <img class='center' style='height: 300px; width=450px;' src='stim/1710.bmp'><img class='center' src='scale/BlankScaleUnpleasant.png'>","51","html-keyboard-response","26","28972","0.0-2.0-5.1","","","0","NaN","","Infinity","-Infinity","0","0","0","[object Object]","true","[object Object]"
"null","<h2 style=""color:white; text-align:center;"">How unpleasant?</h2> <img class='center' style='height: 300px; width=450px;' src='stim/1710.bmp'><img class='center' src='scale/UnpleasantScale3.jpg'>","null","html-keyboard-response","27","30979","0.0-2.0-6.1","","","0","NaN","","Infinity","-Infinity","0","0","0","[object Object]","true","[object Object]"
"null","","null","html-keyboard-response","28","33980","0.0-2.0-7.1","","","","","","","","","","","","",""
"264.4350000000559","<h2 style=""color:white; text-align:center;"">How arousing/exciting?</h2> <img class='center' style='height: 300px; width=450px;' src='stim/1710.bmp'><img class='center' src='scale/BlankScaleArousal.png'>","51","html-keyboard-response","29","34246","0.0-2.0-8.1","","","0","NaN","","Infinity","-Infinity","0","0","0","[object Object]","true","[object Object]"
"null","<h2 style=""color:white; text-align:center;"">How arousing/exciting?</h2> <img class='center' style='height: 300px; width=450px;' src='stim/1710.bmp'><img class='center' src='scale/ArousalScale3.jpg'>","null","html-keyboard-response","30","36251","0.0-2.0-9.1","","","0","NaN","","Infinity","-Infinity","0","0","0","[object Object]","true","[object Object]"
"null","<div style=""color:white; font-size:60px;"">+</div>","null","html-keyboard-response","31","37252","0.0-2.0-0.2","fixation","","","","","","","","","","","",""
"null","","null","html-keyboard-response","32","40256","0.0-2.0-1.2","","","","","","","","","","","","",""
"404.88999999978114","<h2 style=""color:white; text-align:center;"">How pleasant?</h2> <img class='center' style='height: 300px; width=450px;' src='stim/2190.bmp'><img class='center' src='scale/BlankScalePleasant.png'>","51","html-keyboard-response","33","40663","0.0-2.0-2.2","","","0","NaN","","Infinity","-Infinity","0","0","0","[object Object]","true","[object Object]"
"null","<h2 style=""color:white; text-align:center;"">How pleasant?</h2> <img class='center' style='height: 300px; width=450px;' src='stim/2190.bmp'><img class='center' src='scale/PleasantScale3.jpg'>","null","html-keyboard-response","34","42670","0.0-2.0-3.2","","","0","NaN","","Infinity","-Infinity","0","0","0","[object Object]","true","[object Object]"
"null","","null","html-keyboard-response","35","45673","0.0-2.0-4.2","","","","","","","","","","","","",""
"584.9399999997695","<h2 style=""color:white; text-align:center;"">How unpleasant?</h2> <img class='center' style='height: 300px; width=450px;' src='stim/2190.bmp'><img class='center' src='scale/BlankScaleUnpleasant.png'>","51","html-keyboard-response","36","46260","0.0-2.0-5.2","","","0","NaN","","Infinity","-Infinity","0","0","0","[object Object]","true","[object Object]"
"null","<h2 style=""color:white; text-align:center;"">How unpleasant?</h2> <img class='center' style='height: 300px; width=450px;' src='stim/2190.bmp'><img class='center' src='scale/UnpleasantScale3.jpg'>","null","html-keyboard-response","37","48267","0.0-2.0-6.2","","","0","NaN","","Infinity","-Infinity","0","0","0","[object Object]","true","[object Object]"
"null","","null","html-keyboard-response","38","51270","0.0-2.0-7.2","","","","","","","","","","","","",""
"558.1999999994878","<h2 style=""color:white; text-align:center;"">How arousing/exciting?</h2> <img class='center' style='height: 300px; width=450px;' src='stim/2190.bmp'><img class='center' src='scale/BlankScaleArousal.png'>","51","html-keyboard-response","39","51830","0.0-2.0-8.2","","","0","NaN","","Infinity","-Infinity","0","0","0","[object Object]","true","[object Object]"
"null","<h2 style=""color:white; text-align:center;"">How arousing/exciting?</h2> <img class='center' style='height: 300px; width=450px;' src='stim/2190.bmp'><img class='center' src='scale/ArousalScale3.jpg'>","null","html-keyboard-response","40","53833","0.0-2.0-9.2","","","0","NaN","","Infinity","-Infinity","0","0","0","[object Object]","true","[object Object]"
"null","<p style='color:white;'>You have completed this task. Please wait for the experimenter to continue.</p><p style='color:white;'>Data Saving...Do not close this window until the text dissapears.”</p>","null","html-keyboard-response","41","63836","0.0-3.0","","","","","","","","","","","","",""
