"rt","stimulus","key_press","trial_type","trial_index","time_elapsed","internal_node_id","test_part","condition","descriptor","pleasant_rating","unpleasant_rating","arousal_rating"
"700.7700000031036","<h1 style=""color:white;"">Welcome to the experiment!</h1><p style=""color:white;"">Press any key to begin.</p>","32","html-keyboard-response","0","704","0.0-0.0","","","","","",""
"320.74999999895226","<h2 style=""color:white;"">You will now see a series of pictures. </h2><h3 style=""color:white;"">Some of the pictures will be <b>positive</b>, like pictures of babies.   </h3><h3 style=""color:white;"">Some will be <b>negative</b>, like pictures of sharks or sad people. </h3><h3 style=""color:white;""> Some will be <b>neutral</b>, like pictures of a clock or desk.</h3><p style=""color:white;""> Press the spacebar to continue.</p>","32","html-keyboard-response","1","1025","0.0-1.0-0.0","","","","","",""
"115.5399999988731","<h2 style=""color:white;"">We want you to tell us how each picture makes you <b>feel</b>.</h2> <h3 style=""color:white;"">You will make <b>3 ratings</b> for each picture.</h3> <p style=""color:white;""> Press the spacebar to continue.</p>","32","html-keyboard-response","2","1141","0.0-1.0-1.0","","","","","",""
"179.89999999917927","<h2 style=""color:white;"">The first rating you will be asked to make is a rating of how <b>pleasant</b> you feel when you see the photo.</h2> <h3 style=""color:white;""><b>""Pleasantness""</b>  refers to how <b>happy</b> or <b>good</b> you feel when you see each photo and how much you like looking at it.</h3> <p style=""color:white;""> Press the spacebar to continue.</p>","32","html-keyboard-response","3","1322","0.0-1.0-2.0","","","","","",""
"101.51499999847147","<h2 style=""color:white;""><b>Pleasantness</b></h2> <h3 style=""color:white;"">This is the <b>pleasantness scale</b> that you will use to rate how <b>positive</b> you feel when you see each picture.</h3><img class='center' style='width:453px; height:215px;' src='scale/BlankScalePleasant.png'></img><p style=""color:white;""> Press the spacebar to continue.</p>","32","html-keyboard-response","4","1425","0.0-1.0-3.0","","","","","",""
"84.38000000023749","<h2 style=""color:white;"">The second rating you will be asked to make is a rating of how <b>unpleasant</b> you feel when you see the photo.</h2> <h3 style=""color:white;""><b>""Unpleasantness""</b> refers to how <b>bad</b> or <b>unhappy</b> you feel when you see each photo.</h3><p style=""color:white;""> Press the spacebar to continue.</p>","32","html-keyboard-response","5","1510","0.0-1.0-4.0","","","","","",""
"99.59499999968102","<h2 style=""color:white;""><b>Unpleasantness</b></h2> <h3 style=""color:white;"">This is the <b>unpleasantness scale</b> that you will use to rate how <b>negative</b> you feel when you see each picture.</h3><img class='center' style='width:451px; height:211px;' src='scale/BlankScaleUnpleasant.png'></img><p style=""color:white;""> Press the spacebar to continue.</p>","32","html-keyboard-response","6","1610","0.0-1.0-5.0","","","","","",""
"83.90000000144937","<h2 style=""color:white;"">You should decide how to rate each photo on the basis of how <b>pleasant</b> or <b>unpleasant</b> you feel when you see it.</h2> <h3 style=""color:white;"">There are no ""right"" or ""wrong"" answers for rating the photos.</h3> <h3 style=""color:white;"">Just go by how much you like or dislike each one.</h3> <p style=""color:white;""> Press the spacebar to continue.</p>","32","html-keyboard-response","7","1695","0.0-1.0-6.0","","","","","",""
"190.3149999998277","<h2 style=""color:white;"">The third rating you will be asked to make is a rating of how <b>arousing</b> or <b>exciting</b> each picture makes you feel.</h2> <h3 style=""color:white;""><b>""Arousing""</b> refers to how <b>excited</b> or <b>keyed-up</b> the photo makes you feel.<h3><h3 style=""color:white;"">Some of the pictures will be <b>highly arousing</b> and some will make you feel more <b>calm</b> or <b>sleepy</b>.</h3> <p style=""color:white;""> Press the spacebar to continue.</p>","32","html-keyboard-response","8","1886","0.0-1.0-7.0","","","","","",""
"93.29000000070664","<h2 style=""color:white;""><b>Arousal</b></h2> <p style=""color:white;"">This is the <b>arousal scale</b> that you will use to rate how <b>calm to excited</b> you feel when you see each picture.</p><img class='center' style='width:538px; height:222px;' src='scale/BlankScaleArousal.png'></img><p style=""color:white;""> Press the spacebar to continue.</p>","32","html-keyboard-response","9","1980","0.0-1.0-8.0","","","","","",""
"93.32499999800348","<h2 style=""color:white;"">Now we will have you rate some pictures for how <b>positive</b>, how <b>negative</b>, and how <b>arousing</b> they make you feel.</h2> <h3 style=""color:white;"">Please press the number on top of your keybaord that corresponds to your choice.</h3> <p style=""color:white;""> Press the spacebar to continue.</p>","32","html-keyboard-response","10","2074","0.0-1.0-9.0","","","","","",""
"null","<div style=""color:white; font-size:60px;"">+</div>","null","html-keyboard-response","11","3076","0.0-2.0-0.0","fixation","","","","",""
"null","","null","html-keyboard-response","12","6079","0.0-2.0-1.0","","negative","hospital","","",""
"805.7200000002922","<h2 style=""color:white; text-align:center;"">How pleasant?</h2> <img class='center' style='height: 300px; width=450px;' src='stim/2205.bmp'><img class='center' src='scale/BlankScalePleasant.png'>","50","html-keyboard-response","13","6887","0.0-2.0-2.0","pleasant","","","2","",""
"null","<h2 style=""color:white; text-align:center;"">How pleasant?</h2> <img class='center' style='height: 300px; width=450px;' src='stim/2205.bmp'><img class='center' src='scale/PleasantScale2.jpg'>","null","html-keyboard-response","14","8891","0.0-2.0-3.0","","","","","",""
"null","","null","html-keyboard-response","15","11894","0.0-2.0-4.0","","negative","hospital","","",""
"545.3700000034587","<h2 style=""color:white; text-align:center;"">How unpleasant?</h2> <img class='center' style='height: 300px; width=450px;' src='stim/2205.bmp'><img class='center' src='scale/BlankScaleUnpleasant.png'>","50","html-keyboard-response","16","12441","0.0-2.0-5.0","unpleasant","","","","2",""
"null","<h2 style=""color:white; text-align:center;"">How unpleasant?</h2> <img class='center' style='height: 300px; width=450px;' src='stim/2205.bmp'><img class='center' src='scale/UnpleasantScale2.jpg'>","null","html-keyboard-response","17","14446","0.0-2.0-6.0","","","","","",""
"null","","null","html-keyboard-response","18","17452","0.0-2.0-7.0","","negative","hospital","","",""
"580.7050000003073","<h2 style=""color:white; text-align:center;"">How arousing/exciting?</h2> <img class='center' style='height: 300px; width=450px;' src='stim/2205.bmp'><img class='center' src='scale/BlankScaleArousal.png'>","51","html-keyboard-response","19","18034","0.0-2.0-8.0","arousal","","","","","3"
"null","<h2 style=""color:white; text-align:center;"">How arousing/exciting?</h2> <img class='center' style='height: 300px; width=450px;' src='stim/2205.bmp'><img class='center' src='scale/ArousalScale3.jpg'>","null","html-keyboard-response","20","20041","0.0-2.0-9.0","","","","","",""
"null","<div style=""color:white; font-size:60px;"">+</div>","null","html-keyboard-response","21","21046","0.0-2.0-0.1","fixation","","","","",""
"null","","null","html-keyboard-response","22","24049","0.0-2.0-1.1","","neutral","man","","",""
"701.4349999990372","<h2 style=""color:white; text-align:center;"">How pleasant?</h2> <img class='center' style='height: 300px; width=450px;' src='stim/2190.bmp'><img class='center' src='scale/BlankScalePleasant.png'>","52","html-keyboard-response","23","24752","0.0-2.0-2.1","pleasant","","","4","",""
"null","<h2 style=""color:white; text-align:center;"">How pleasant?</h2> <img class='center' style='height: 300px; width=450px;' src='stim/2190.bmp'><img class='center' src='scale/PleasantScale4.jpg'>","null","html-keyboard-response","24","26755","0.0-2.0-3.1","","","","","",""
"null","","null","html-keyboard-response","25","29758","0.0-2.0-4.1","","neutral","man","","",""
"1246.0150000006252","<h2 style=""color:white; text-align:center;"">How unpleasant?</h2> <img class='center' style='height: 300px; width=450px;' src='stim/2190.bmp'><img class='center' src='scale/BlankScaleUnpleasant.png'>","50","html-keyboard-response","26","31005","0.0-2.0-5.1","unpleasant","","","","2",""
"null","<h2 style=""color:white; text-align:center;"">How unpleasant?</h2> <img class='center' style='height: 300px; width=450px;' src='stim/2190.bmp'><img class='center' src='scale/UnpleasantScale2.jpg'>","null","html-keyboard-response","27","33009","0.0-2.0-6.1","","","","","",""
"null","","null","html-keyboard-response","28","36012","0.0-2.0-7.1","","neutral","man","","",""
"575.2850000026228","<h2 style=""color:white; text-align:center;"">How arousing/exciting?</h2> <img class='center' style='height: 300px; width=450px;' src='stim/2190.bmp'><img class='center' src='scale/BlankScaleArousal.png'>","53","html-keyboard-response","29","36589","0.0-2.0-8.1","arousal","","","","","5"
"null","<h2 style=""color:white; text-align:center;"">How arousing/exciting?</h2> <img class='center' style='height: 300px; width=450px;' src='stim/2190.bmp'><img class='center' src='scale/ArousalScale5.jpg'>","null","html-keyboard-response","30","38595","0.0-2.0-9.1","","","","","",""
"null","<div style=""color:white; font-size:60px;"">+</div>","null","html-keyboard-response","31","39599","0.0-2.0-0.2","fixation","","","","",""
"null","","null","html-keyboard-response","32","42601","0.0-2.0-1.2","","positive","puppies","","",""
"557.3650000005728","<h2 style=""color:white; text-align:center;"">How pleasant?</h2> <img class='center' style='height: 300px; width=450px;' src='stim/1710.bmp'><img class='center' src='scale/BlankScalePleasant.png'>","53","html-keyboard-response","33","43160","0.0-2.0-2.2","pleasant","","","5","",""
"null","<h2 style=""color:white; text-align:center;"">How pleasant?</h2> <img class='center' style='height: 300px; width=450px;' src='stim/1710.bmp'><img class='center' src='scale/PleasantScale5.jpg'>","null","html-keyboard-response","34","45166","0.0-2.0-3.2","","","","","",""
"null","","null","html-keyboard-response","35","48169","0.0-2.0-4.2","","positive","puppies","","",""
"557.2250000004715","<h2 style=""color:white; text-align:center;"">How unpleasant?</h2> <img class='center' style='height: 300px; width=450px;' src='stim/1710.bmp'><img class='center' src='scale/BlankScaleUnpleasant.png'>","53","html-keyboard-response","36","48728","0.0-2.0-5.2","unpleasant","","","","5",""
"null","<h2 style=""color:white; text-align:center;"">How unpleasant?</h2> <img class='center' style='height: 300px; width=450px;' src='stim/1710.bmp'><img class='center' src='scale/UnpleasantScale5.jpg'>","null","html-keyboard-response","37","50734","0.0-2.0-6.2","","","","","",""
"null","","null","html-keyboard-response","38","53737","0.0-2.0-7.2","","positive","puppies","","",""
"837.8549999979441","<h2 style=""color:white; text-align:center;"">How arousing/exciting?</h2> <img class='center' style='height: 300px; width=450px;' src='stim/1710.bmp'><img class='center' src='scale/BlankScaleArousal.png'>","53","html-keyboard-response","39","54576","0.0-2.0-8.2","arousal","","","","","5"
"null","<h2 style=""color:white; text-align:center;"">How arousing/exciting?</h2> <img class='center' style='height: 300px; width=450px;' src='stim/1710.bmp'><img class='center' src='scale/ArousalScale5.jpg'>","null","html-keyboard-response","40","56581","0.0-2.0-9.2","","","","","",""
"null","<p style='color:white;'>You have completed this task. Please wait for the experimenter to continue.</p><p style='color:white;'>Data Saving...Do not close this window until the text dissapears.”</p>","null","html-keyboard-response","41","66585","0.0-3.0","","","","","",""
