"rt","stimulus","key_press","trial_type","trial_index","time_elapsed","internal_node_id","condition","descriptor","test_part","trial","rating","unpleasant_rating","arousal_rating"
"420.15499994158745","<h1 style=""color:white;"">Welcome to the experiment!</h1><p style=""color:white;"">Press any key to begin.</p>","32","html-keyboard-response","0","424","0.0-0.0","","","","","","",""
"182.80000006780028","<h2 style=""color:white;"">You will now see a series of pictures. </h2><h3 style=""color:white;"">Some of the pictures will be <b>positive</b>, like pictures of babies.   </h3><h3 style=""color:white;"">Some will be <b>negative</b>, like pictures of sharks or sad people. </h3><h3 style=""color:white;""> Some will be <b>neutral</b>, like pictures of a clock or desk.</h3><p style=""color:white;""> Press the spacebar to continue.</p>","32","html-keyboard-response","1","608","0.0-1.0-0.0","","","","","","",""
"504.2200000025332","<h2 style=""color:white;"">We want you to tell us how each picture makes you <b>feel</b>.</h2> <h3 style=""color:white;"">You will make <b>3 ratings</b> for each picture.</h3> <p style=""color:white;""> Press the spacebar to continue.</p>","32","html-keyboard-response","2","1113","0.0-1.0-1.0","","","","","","",""
"143.14000005833805","<h2 style=""color:white;"">The first rating you will be asked to make is a rating of how <b>pleasant</b> you feel when you see the photo.</h2> <h3 style=""color:white;""><b>""Pleasantness""</b>  refers to how <b>happy</b> or <b>good</b> you feel when you see each photo and how much you like looking at it.</h3> <p style=""color:white;""> Press the spacebar to continue.</p>","32","html-keyboard-response","3","1257","0.0-1.0-2.0","","","","","","",""
"636.4700000267476","<h2 style=""color:white;""><b>Pleasantness</b></h2> <h3 style=""color:white;"">This is the <b>pleasantness scale</b> that you will use to rate how <b>positive</b> you feel when you see each picture.</h3><img class='center' style='width:453px; height:215px;' src='scale/BlankScalePleasant.png'></img><p style=""color:white;""> Press the spacebar to continue.</p>","32","html-keyboard-response","4","1895","0.0-1.0-3.0","","","","","","",""
"320.32499997876585","<h2 style=""color:white;"">The second rating you will be asked to make is a rating of how <b>unpleasant</b> you feel when you see the photo.</h2> <h3 style=""color:white;""><b>""Unpleasantness""</b> refers to how <b>bad</b> or <b>unhappy</b> you feel when you see each photo.</h3><p style=""color:white;""> Press the spacebar to continue.</p>","32","html-keyboard-response","5","2217","0.0-1.0-4.0","","","","","","",""
"154.58999993279576","<h2 style=""color:white;""><b>Unpleasantness</b></h2> <h3 style=""color:white;"">This is the <b>unpleasantness scale</b> that you will use to rate how <b>negative</b> you feel when you see each picture.</h3><img class='center' style='width:451px; height:211px;' src='scale/BlankScaleUnpleasant.png'></img><p style=""color:white;""> Press the spacebar to continue.</p>","32","html-keyboard-response","6","2373","0.0-1.0-5.0","","","","","","",""
"151.89000009559095","<h2 style=""color:white;"">You should decide how to rate each photo on the basis of how <b>pleasant</b> or <b>unpleasant</b> you feel when you see it.</h2> <h3 style=""color:white;"">There are no ""right"" or ""wrong"" answers for rating the photos.</h3> <h3 style=""color:white;"">Just go by how much you like or dislike each one.</h3> <p style=""color:white;""> Press the spacebar to continue.</p>","32","html-keyboard-response","7","2525","0.0-1.0-6.0","","","","","","",""
"163.36499992758036","<h2 style=""color:white;"">The third rating you will be asked to make is a rating of how <b>arousing</b> or <b>exciting</b> each picture makes you feel.</h2> <h3 style=""color:white;""><b>""Arousing""</b> refers to how <b>excited</b> or <b>keyed-up</b> the photo makes you feel.<h3><h3 style=""color:white;"">Some of the pictures will be <b>highly arousing</b> and some will make you feel more <b>calm</b> or <b>sleepy</b>.</h3> <p style=""color:white;""> Press the spacebar to continue.</p>","32","html-keyboard-response","8","2689","0.0-1.0-7.0","","","","","","",""
"134.97500005178154","<h2 style=""color:white;""><b>Arousal</b></h2> <p style=""color:white;"">This is the <b>arousal scale</b> that you will use to rate how <b>calm to excited</b> you feel when you see each picture.</p><img class='center' style='width:538px; height:222px;' src='scale/BlankScaleArousal.png'></img><p style=""color:white;""> Press the spacebar to continue.</p>","32","html-keyboard-response","9","2826","0.0-1.0-8.0","","","","","","",""
"155.79500002786517","<h2 style=""color:white;"">Now we will have you rate some pictures for how <b>positive</b>, how <b>negative</b>, and how <b>arousing</b> they make you feel.</h2> <h3 style=""color:white;"">Please press the number on top of your keybaord that corresponds to your choice.</h3> <p style=""color:white;""> Press the spacebar to continue.</p>","32","html-keyboard-response","10","2982","0.0-1.0-9.0","","","","","","",""
"null","<div style=""color:white; font-size:60px;"">+</div>","null","html-keyboard-response","11","3984","0.0-2.0-0.0","","","","","","",""
"1121.2900001555681","<h2 style=""color:white; text-align:center;"">How positive?</h2> <img class='center' style='height: 300px; width=450px;' src='stim/1710.bmp'><img class='center' src='scale/BlankScalePleasant.png'>","49","html-keyboard-response","12","5108","0.0-2.0-1.0","positive","puppies","pleasant","1","1","",""
"null","<h2 style=""color:white; text-align:center;"">How positive?</h2> <img class='center' style='height: 300px; width=450px;' src='stim/1710.bmp'><img class='center' src='scale/PleasantScale1.jpg'>","null","html-keyboard-response","13","7110","0.0-2.0-2.0","","","","","","",""
"523.6400000285357","<h2 style=""color:white; text-align:center;"">How negative?</h2> <img class='center' style='height: 300px; width=450px;' src='stim/1710.bmp'><img class='center' src='scale/BlankScaleUnpleasant.png'>","50","html-keyboard-response","14","7637","0.0-2.0-3.0","positive","puppies","unpleasant","1","","2",""
"null","<h2 style=""color:white; text-align:center;"">How negative?</h2> <img class='center' style='height: 300px; width=450px;' src='stim/1710.bmp'><img class='center' src='scale/UnpleasantScale2.jpg'>","null","html-keyboard-response","15","9640","0.0-2.0-4.0","","","","","","",""
"453.90000008046627","<h2 style=""color:white; text-align:center;"">How calm---excited?</h2> <img class='center' style='height: 300px; width=450px;' src='stim/1710.bmp'><img class='center' src='scale/BlankScaleArousal.png'>","50","html-keyboard-response","16","10097","0.0-2.0-5.0","positive","puppies","unpleasant","1","","","2"
"null","<h2 style=""color:white; text-align:center;"">How calm---excited?</h2> <img class='center' style='height: 300px; width=450px;' src='stim/1710.bmp'><img class='center' src='scale/ArousalScale2.jpg'>","null","html-keyboard-response","17","12099","0.0-2.0-6.0","","","","","","",""
"null","<div style=""color:white; font-size:60px;"">+</div>","null","html-keyboard-response","18","13105","0.0-2.0-0.1","","","","","","",""
"463.51999999023974","<h2 style=""color:white; text-align:center;"">How positive?</h2> <img class='center' style='height: 300px; width=450px;' src='stim/2190.bmp'><img class='center' src='scale/BlankScalePleasant.png'>","49","html-keyboard-response","19","13570","0.0-2.0-1.1","neutral","man","pleasant","2","1","",""
"null","<h2 style=""color:white; text-align:center;"">How positive?</h2> <img class='center' style='height: 300px; width=450px;' src='stim/2190.bmp'><img class='center' src='scale/PleasantScale1.jpg'>","null","html-keyboard-response","20","15575","0.0-2.0-2.1","","","","","","",""
"310.910000000149","<h2 style=""color:white; text-align:center;"">How negative?</h2> <img class='center' style='height: 300px; width=450px;' src='stim/2190.bmp'><img class='center' src='scale/BlankScaleUnpleasant.png'>","50","html-keyboard-response","21","15888","0.0-2.0-3.1","neutral","man","unpleasant","2","","2",""
"1971.879999851808","<h2 style=""color:white; text-align:center;"">How negative?</h2> <img class='center' style='height: 300px; width=450px;' src='stim/2190.bmp'><img class='center' src='scale/UnpleasantScale2.jpg'>","52","html-keyboard-response","22","17894","0.0-2.0-4.1","","","","","","",""
"446.9800000078976","<h2 style=""color:white; text-align:center;"">How calm---excited?</h2> <img class='center' style='height: 300px; width=450px;' src='stim/2190.bmp'><img class='center' src='scale/BlankScaleArousal.png'>","52","html-keyboard-response","23","18343","0.0-2.0-5.1","neutral","man","unpleasant","2","","","4"
"null","<h2 style=""color:white; text-align:center;"">How calm---excited?</h2> <img class='center' style='height: 300px; width=450px;' src='stim/2190.bmp'><img class='center' src='scale/ArousalScale4.jpg'>","null","html-keyboard-response","24","20348","0.0-2.0-6.1","","","","","","",""
"null","<div style=""color:white; font-size:60px;"">+</div>","null","html-keyboard-response","25","21354","0.0-2.0-0.2","","","","","","",""
"507.9300000797957","<h2 style=""color:white; text-align:center;"">How positive?</h2> <img class='center' style='height: 300px; width=450px;' src='stim/2205.bmp'><img class='center' src='scale/BlankScalePleasant.png'>","50","html-keyboard-response","26","21864","0.0-2.0-1.2","negative","hospital","pleasant","3","2","",""
"null","<h2 style=""color:white; text-align:center;"">How positive?</h2> <img class='center' style='height: 300px; width=450px;' src='stim/2205.bmp'><img class='center' src='scale/PleasantScale2.jpg'>","null","html-keyboard-response","27","23870","0.0-2.0-2.2","","","","","","",""
"734.2149999458343","<h2 style=""color:white; text-align:center;"">How negative?</h2> <img class='center' style='height: 300px; width=450px;' src='stim/2205.bmp'><img class='center' src='scale/BlankScaleUnpleasant.png'>","50","html-keyboard-response","28","24607","0.0-2.0-3.2","negative","hospital","unpleasant","3","","2",""
"null","<h2 style=""color:white; text-align:center;"">How negative?</h2> <img class='center' style='height: 300px; width=450px;' src='stim/2205.bmp'><img class='center' src='scale/UnpleasantScale2.jpg'>","null","html-keyboard-response","29","26610","0.0-2.0-4.2","","","","","","",""
"477.69999993033707","<h2 style=""color:white; text-align:center;"">How calm---excited?</h2> <img class='center' style='height: 300px; width=450px;' src='stim/2205.bmp'><img class='center' src='scale/BlankScaleArousal.png'>","53","html-keyboard-response","30","27089","0.0-2.0-5.2","negative","hospital","unpleasant","3","","","5"
"null","<h2 style=""color:white; text-align:center;"">How calm---excited?</h2> <img class='center' style='height: 300px; width=450px;' src='stim/2205.bmp'><img class='center' src='scale/ArousalScale5.jpg'>","null","html-keyboard-response","31","29096","0.0-2.0-6.2","","","","","","",""
"null","<p style='color:white;'>You have completed this task. Please wait for the experimenter to continue.</p><p style='color:white;'>Data Saving...do not close this window until the text dissapears.</p>","null","html-keyboard-response","32","39099","0.0-3.0","","","","","","",""
