"rt","stimulus","key_press","trial_type","trial_index","time_elapsed","internal_node_id","test_part","descriptor","pleasant_rating","unpleasant_rating","arousal_rating"
"1400.9700000024168","<h1 style=""color:white;"">Welcome to the experiment!</h1><p style=""color:white;"">Press any key to begin.</p>","32","html-keyboard-response","0","1405","0.0-0.0","","","","",""
"404.21000000060303","<h2 style=""color:white;"">You will now see a series of pictures. </h2><h3 style=""color:white;"">Some of the pictures will be <b>positive</b>, like pictures of babies.   </h3><h3 style=""color:white;"">Some will be <b>negative</b>, like pictures of sharks or sad people. </h3><h3 style=""color:white;""> Some will be <b>neutral</b>, like pictures of a clock or desk.</h3><p style=""color:white;""> Press the spacebar to continue.</p>","32","html-keyboard-response","1","1810","0.0-1.0-0.0","","","","",""
"113.30500000258326","<h2 style=""color:white;"">We want you to tell us how each picture makes you <b>feel</b>.</h2> <h3 style=""color:white;"">You will make <b>3 ratings</b> for each picture.</h3> <p style=""color:white;""> Press the spacebar to continue.</p>","32","html-keyboard-response","2","1924","0.0-1.0-1.0","","","","",""
"82.18499999929918","<h2 style=""color:white;"">The first rating you will be asked to make is a rating of how <b>pleasant</b> you feel when you see the photo.</h2> <h3 style=""color:white;""><b>""Pleasantness""</b>  refers to how <b>happy</b> or <b>good</b> you feel when you see each photo and how much you like looking at it.</h3> <p style=""color:white;""> Press the spacebar to continue.</p>","32","html-keyboard-response","3","2007","0.0-1.0-2.0","","","","",""
"99.84999999869615","<h2 style=""color:white;""><b>Pleasantness</b></h2> <h3 style=""color:white;"">This is the <b>pleasantness scale</b> that you will use to rate how <b>positive</b> you feel when you see each picture.</h3><img class='center' style='width:453px; height:215px;' src='scale/BlankScalePleasant.png'></img><p style=""color:white;""> Press the spacebar to continue.</p>","32","html-keyboard-response","4","2108","0.0-1.0-3.0","","","","",""
"94.55499999967287","<h2 style=""color:white;"">The second rating you will be asked to make is a rating of how <b>unpleasant</b> you feel when you see the photo.</h2> <h3 style=""color:white;""><b>""Unpleasantness""</b> refers to how <b>bad</b> or <b>unhappy</b> you feel when you see each photo.</h3><p style=""color:white;""> Press the spacebar to continue.</p>","32","html-keyboard-response","5","2203","0.0-1.0-4.0","","","","",""
"470.09000000252854","<h2 style=""color:white;""><b>Unpleasantness</b></h2> <h3 style=""color:white;"">This is the <b>unpleasantness scale</b> that you will use to rate how <b>negative</b> you feel when you see each picture.</h3><img class='center' style='width:451px; height:211px;' src='scale/BlankScaleUnpleasant.png'></img><p style=""color:white;""> Press the spacebar to continue.</p>","32","html-keyboard-response","6","2674","0.0-1.0-5.0","","","","",""
"252.6400000024296","<h2 style=""color:white;"">You should decide how to rate each photo on the basis of how <b>pleasant</b> or <b>unpleasant</b> you feel when you see it.</h2> <h3 style=""color:white;"">There are no ""right"" or ""wrong"" answers for rating the photos.</h3> <h3 style=""color:white;"">Just go by how much you like or dislike each one.</h3> <p style=""color:white;""> Press the spacebar to continue.</p>","32","html-keyboard-response","7","2928","0.0-1.0-6.0","","","","",""
"89.86000000004424","<h2 style=""color:white;"">The third rating you will be asked to make is a rating of how <b>arousing</b> or <b>exciting</b> each picture makes you feel.</h2> <h3 style=""color:white;""><b>""Arousing""</b> refers to how <b>excited</b> or <b>keyed-up</b> the photo makes you feel.<h3><h3 style=""color:white;"">Some of the pictures will be <b>highly arousing</b> and some will make you feel more <b>calm</b> or <b>sleepy</b>.</h3> <p style=""color:white;""> Press the spacebar to continue.</p>","32","html-keyboard-response","8","3018","0.0-1.0-7.0","","","","",""
"100.37999999985914","<h2 style=""color:white;""><b>Arousal</b></h2> <p style=""color:white;"">This is the <b>arousal scale</b> that you will use to rate how <b>calm to excited</b> you feel when you see each picture.</p><img class='center' style='width:538px; height:222px;' src='scale/BlankScaleArousal.png'></img><p style=""color:white;""> Press the spacebar to continue.</p>","32","html-keyboard-response","9","3120","0.0-1.0-8.0","","","","",""
"105.41999999986729","<h2 style=""color:white;"">Now we will have you rate some pictures for how <b>positive</b>, how <b>negative</b>, and how <b>arousing</b> they make you feel.</h2> <h3 style=""color:white;"">Please press the number on top of your keybaord that corresponds to your choice.</h3> <p style=""color:white;""> Press the spacebar to continue.</p>","32","html-keyboard-response","10","3226","0.0-1.0-9.0","","","","",""
"null","<div style=""color:white; font-size:60px;"">+</div>","null","html-keyboard-response","11","4228","0.0-2.0-0.0","fixation","","","",""
"null","","null","html-keyboard-response","12","7234","0.0-2.0-1.0","neutral","man","","",""
"590.1499999999942","<h2 style=""color:white; text-align:center;"">How pleasant?</h2> <img class='center' style='height: 300px; width=450px;' src='stim/2190.bmp'><img class='center' src='scale/BlankScalePleasant.png'>","49","html-keyboard-response","13","7827","0.0-2.0-2.0","pleasant","","1","",""
"null","<h2 style=""color:white; text-align:center;"">How pleasant?</h2> <img class='center' style='height: 300px; width=450px;' src='stim/2190.bmp'><img class='center' src='scale/PleasantScale1.jpg'>","null","html-keyboard-response","14","9830","0.0-2.0-3.0","","","","",""
"null","","null","html-keyboard-response","15","12835","0.0-2.0-4.0","neutral","man","","",""
"495.53999999989173","<h2 style=""color:white; text-align:center;"">How unpleasant?</h2> <img class='center' style='height: 300px; width=450px;' src='stim/2190.bmp'><img class='center' src='scale/BlankScaleUnpleasant.png'>","49","html-keyboard-response","16","13333","0.0-2.0-5.0","unpleasant","","","1",""
"null","<h2 style=""color:white; text-align:center;"">How unpleasant?</h2> <img class='center' style='height: 300px; width=450px;' src='stim/2190.bmp'><img class='center' src='scale/UnpleasantScale1.jpg'>","null","html-keyboard-response","17","15338","0.0-2.0-6.0","","","","",""
"null","","null","html-keyboard-response","18","18342","0.0-2.0-7.0","neutral","man","","",""
"358.52000000159023","<h2 style=""color:white; text-align:center;"">How arousing/exciting?</h2> <img class='center' style='height: 300px; width=450px;' src='stim/2190.bmp'><img class='center' src='scale/BlankScaleArousal.png'>","49","html-keyboard-response","19","18702","0.0-2.0-8.0","arousal","","","","1"
"null","<h2 style=""color:white; text-align:center;"">How arousing/exciting?</h2> <img class='center' style='height: 300px; width=450px;' src='stim/2190.bmp'><img class='center' src='scale/ArousalScale1.jpg'>","null","html-keyboard-response","20","20708","0.0-2.0-9.0","","","","",""
"null","<div style=""color:white; font-size:60px;"">+</div>","null","html-keyboard-response","21","21712","0.0-2.0-0.1","fixation","","","",""
"null","","null","html-keyboard-response","22","24715","0.0-2.0-1.1","negative","hospital","","",""
"609.7249999984342","<h2 style=""color:white; text-align:center;"">How pleasant?</h2> <img class='center' style='height: 300px; width=450px;' src='stim/2205.bmp'><img class='center' src='scale/BlankScalePleasant.png'>","49","html-keyboard-response","23","25327","0.0-2.0-2.1","pleasant","","1","",""
"null","<h2 style=""color:white; text-align:center;"">How pleasant?</h2> <img class='center' style='height: 300px; width=450px;' src='stim/2205.bmp'><img class='center' src='scale/PleasantScale1.jpg'>","null","html-keyboard-response","24","27334","0.0-2.0-3.1","","","","",""
"null","","null","html-keyboard-response","25","30335","0.0-2.0-4.1","negative","hospital","","",""
"717.1699999998964","<h2 style=""color:white; text-align:center;"">How unpleasant?</h2> <img class='center' style='height: 300px; width=450px;' src='stim/2205.bmp'><img class='center' src='scale/BlankScaleUnpleasant.png'>","49","html-keyboard-response","26","31054","0.0-2.0-5.1","unpleasant","","","1",""
"null","<h2 style=""color:white; text-align:center;"">How unpleasant?</h2> <img class='center' style='height: 300px; width=450px;' src='stim/2205.bmp'><img class='center' src='scale/UnpleasantScale1.jpg'>","null","html-keyboard-response","27","33056","0.0-2.0-6.1","","","","",""
"null","","null","html-keyboard-response","28","36059","0.0-2.0-7.1","negative","hospital","","",""
"503.37500000023283","<h2 style=""color:white; text-align:center;"">How arousing/exciting?</h2> <img class='center' style='height: 300px; width=450px;' src='stim/2205.bmp'><img class='center' src='scale/BlankScaleArousal.png'>","49","html-keyboard-response","29","36563","0.0-2.0-8.1","arousal","","","","1"
"null","<h2 style=""color:white; text-align:center;"">How arousing/exciting?</h2> <img class='center' style='height: 300px; width=450px;' src='stim/2205.bmp'><img class='center' src='scale/ArousalScale1.jpg'>","null","html-keyboard-response","30","38566","0.0-2.0-9.1","","","","",""
"null","<div style=""color:white; font-size:60px;"">+</div>","null","html-keyboard-response","31","39567","0.0-2.0-0.2","fixation","","","",""
"null","","null","html-keyboard-response","32","42569","0.0-2.0-1.2","positive","puppies","","",""
"507.23500000094646","<h2 style=""color:white; text-align:center;"">How pleasant?</h2> <img class='center' style='height: 300px; width=450px;' src='stim/1710.bmp'><img class='center' src='scale/BlankScalePleasant.png'>","49","html-keyboard-response","33","43078","0.0-2.0-2.2","pleasant","","1","",""
"null","<h2 style=""color:white; text-align:center;"">How pleasant?</h2> <img class='center' style='height: 300px; width=450px;' src='stim/1710.bmp'><img class='center' src='scale/PleasantScale1.jpg'>","null","html-keyboard-response","34","45084","0.0-2.0-3.2","","","","",""
"null","","null","html-keyboard-response","35","48087","0.0-2.0-4.2","positive","puppies","","",""
"536.3450000004377","<h2 style=""color:white; text-align:center;"">How unpleasant?</h2> <img class='center' style='height: 300px; width=450px;' src='stim/1710.bmp'><img class='center' src='scale/BlankScaleUnpleasant.png'>","49","html-keyboard-response","36","48626","0.0-2.0-5.2","unpleasant","","","1",""
"null","<h2 style=""color:white; text-align:center;"">How unpleasant?</h2> <img class='center' style='height: 300px; width=450px;' src='stim/1710.bmp'><img class='center' src='scale/UnpleasantScale1.jpg'>","null","html-keyboard-response","37","50629","0.0-2.0-6.2","","","","",""
"null","","null","html-keyboard-response","38","53632","0.0-2.0-7.2","positive","puppies","","",""
"547.3600000004808","<h2 style=""color:white; text-align:center;"">How arousing/exciting?</h2> <img class='center' style='height: 300px; width=450px;' src='stim/1710.bmp'><img class='center' src='scale/BlankScaleArousal.png'>","51","html-keyboard-response","39","54181","0.0-2.0-8.2","arousal","","","","3"
"null","<h2 style=""color:white; text-align:center;"">How arousing/exciting?</h2> <img class='center' style='height: 300px; width=450px;' src='stim/1710.bmp'><img class='center' src='scale/ArousalScale3.jpg'>","null","html-keyboard-response","40","56188","0.0-2.0-9.2","","","","",""
"null","<p style='color:white;'>You have completed this task. Please wait for the experimenter to continue.</p><p style='color:white;'>Data Saving...Do not close this window until the text dissapears.”</p>","null","html-keyboard-response","41","66193","0.0-3.0","","","","",""
