"rt","stimulus","key_press","trial_type","trial_index","time_elapsed","internal_node_id","condition","descriptor","test_part","trial","rating"
"391.40999992378056","<h1 style=""color:white;"">Welcome to the experiment!</h1><p style=""color:white;"">Press any key to begin.</p>","32","html-keyboard-response","0","395","0.0-0.0","","","","",""
"170.53000000305474","<h2 style=""color:white;"">You will now see a series of pictures. </h2><h3 style=""color:white;"">Some of the pictures will be <b>positive</b>, like pictures of babies.   </h3><h3 style=""color:white;"">Some will be <b>negative</b>, like pictures of sharks or sad people. </h3><h3 style=""color:white;""> Some will be <b>neutral</b>, like pictures of a clock or desk.</h3><p style=""color:white;""> Press the spacebar to continue.</p>","32","html-keyboard-response","1","567","0.0-1.0-0.0","","","","",""
"271.2199999950826","<h2 style=""color:white;"">We want you to tell us how each picture makes you <b>feel</b>.</h2> <h3 style=""color:white;"">You will make <b>3 ratings</b> for each picture.</h3> <p style=""color:white;""> Press the spacebar to continue.</p>","32","html-keyboard-response","2","839","0.0-1.0-1.0","","","","",""
"156.3500000629574","<h2 style=""color:white;"">The first rating you will be asked to make is a rating of how <b>pleasant</b> you feel when you see the photo.</h2> <h3 style=""color:white;""><b>""Pleasantness""</b>  refers to how <b>happy</b> or <b>good</b> you feel when you see each photo and how much you like looking at it.</h3> <p style=""color:white;""> Press the spacebar to continue.</p>","32","html-keyboard-response","3","996","0.0-1.0-2.0","","","","",""
"158.545000012964","<h2 style=""color:white;""><b>Pleasantness</b></h2> <h3 style=""color:white;"">This is the <b>pleasantness scale</b> that you will use to rate how <b>positive</b> you feel when you see each picture.</h3><img class='center' style='width:453px; height:215px;' src='scale/BlankScalePleasant.png'></img><p style=""color:white;""> Press the spacebar to continue.</p>","32","html-keyboard-response","4","1156","0.0-1.0-3.0","","","","",""
"156.08000010252","<h2 style=""color:white;"">The second rating you will be asked to make is a rating of how <b>unpleasant</b> you feel when you see the photo.</h2> <h3 style=""color:white;""><b>""Unpleasantness""</b> refers to how <b>bad</b> or <b>unhappy</b> you feel when you see each photo.</h3><p style=""color:white;""> Press the spacebar to continue.</p>","32","html-keyboard-response","5","1313","0.0-1.0-4.0","","","","",""
"511.9050000794232","<h2 style=""color:white;""><b>Unpleasantness</b></h2> <h3 style=""color:white;"">This is the <b>unpleasantness scale</b> that you will use to rate how <b>negative</b> you feel when you see each picture.</h3><img class='center' style='width:451px; height:211px;' src='scale/BlankScaleUnpleasant.png'></img><p style=""color:white;""> Press the spacebar to continue.</p>","32","html-keyboard-response","6","1827","0.0-1.0-5.0","","","","",""
"788.7850000988692","<h2 style=""color:white;"">You should decide how to rate each photo on the basis of how <b>pleasant</b> or <b>unpleasant</b> you feel when you see it.</h2> <h3 style=""color:white;"">There are no ""right"" or ""wrong"" answers for rating the photos.</h3> <h3 style=""color:white;"">Just go by how much you like or dislike each one.</h3> <p style=""color:white;""> Press the spacebar to continue.</p>","32","html-keyboard-response","7","2616","0.0-1.0-6.0","","","","",""
"159.50000006705523","<h2 style=""color:white;"">The third rating you will be asked to make is a rating of how <b>arousing</b> or <b>exciting</b> each picture makes you feel.</h2> <h3 style=""color:white;""><b>""Arousing""</b> refers to how <b>excited</b> or <b>keyed-up</b> the photo makes you feel.<h3><h3 style=""color:white;"">Some of the pictures will be <b>highly arousing</b> and some will make you feel more <b>calm</b> or <b>sleepy</b>.</h3> <p style=""color:white;""> Press the spacebar to continue.</p>","32","html-keyboard-response","8","2776","0.0-1.0-7.0","","","","",""
"164.91499985568225","<h2 style=""color:white;""><b>Arousal</b></h2> <p style=""color:white;"">This is the <b>arousal scale</b> that you will use to rate how <b>calm to excited</b> you feel when you see each picture.</p><img class='center' style='width:538px; height:222px;' src='scale/BlankScaleArousal.png'></img><p style=""color:white;""> Press the spacebar to continue.</p>","32","html-keyboard-response","9","2943","0.0-1.0-8.0","","","","",""
"157.67999994568527","<h2 style=""color:white;"">Now we will have you rate some pictures for how <b>positive</b>, how <b>negative</b>, and how <b>arousing</b> they make you feel.</h2> <h3 style=""color:white;"">Please press the number on top of your keybaord that corresponds to your choice.</h3> <p style=""color:white;""> Press the spacebar to continue.</p>","32","html-keyboard-response","10","3101","0.0-1.0-9.0","","","","",""
"null","<div style=""color:white; font-size:60px;"">+</div>","null","html-keyboard-response","11","4106","0.0-2.0-0.0","","","","",""
"1258.350000018254","<h2 style=""color:white; text-align:center;"">How positive?</h2> <img class='center' style='height: 300px; width=450px;' src='stim/2190.bmp'><img class='center' src='scale/BlankScalePleasant.png'>","49","html-keyboard-response","12","5367","0.0-2.0-1.0","neutral","man","pleasant","1","1"
"null","<h2 style=""color:white; text-align:center;"">How positive?</h2> <img class='center' style='height: 300px; width=450px;' src='stim/2190.bmp'><img class='center' src='scale/PleasantScale1.jpg'>","null","html-keyboard-response","13","7370","0.0-2.0-2.0","","","","",""
"489.74500014446676","<h2 style=""color:white; text-align:center;"">How negative?</h2> <img class='center' style='height: 300px; width=450px;' src='stim/2190.bmp'><img class='center' src='scale/BlankScaleUnpleasant.png'>","51","html-keyboard-response","14","7863","0.0-2.0-3.0","neutral","man","unpleasant","1","3"
"null","<h2 style=""color:white; text-align:center;"">How negative?</h2> <img class='center' style='height: 300px; width=450px;' src='stim/2190.bmp'><img class='center' src='scale/UnpleasantScale3.jpg'>","null","html-keyboard-response","15","9867","0.0-2.0-4.0","","","","",""
"324.37999988906085","<h2 style=""color:white; text-align:center;"">How calm---excited?</h2> <img class='center' style='height: 300px; width=450px;' src='stim/2190.bmp'><img class='center' src='scale/BlankScaleArousal.png'>","50","html-keyboard-response","16","10193","0.0-2.0-5.0","neutral","man","unpleasant","1","2"
"null","<h2 style=""color:white; text-align:center;"">How calm---excited?</h2> <img class='center' style='height: 300px; width=450px;' src='stim/2190.bmp'><img class='center' src='scale/ArousalScale2.jpg'>","null","html-keyboard-response","17","12196","0.0-2.0-6.0","","","","",""
"null","<div style=""color:white; font-size:60px;"">+</div>","null","html-keyboard-response","18","13200","0.0-2.0-0.1","","","","",""
"334.3950000125915","<h2 style=""color:white; text-align:center;"">How positive?</h2> <img class='center' style='height: 300px; width=450px;' src='stim/1710.bmp'><img class='center' src='scale/BlankScalePleasant.png'>","53","html-keyboard-response","19","13537","0.0-2.0-1.1","positive","puppies","pleasant","2","5"
"null","<h2 style=""color:white; text-align:center;"">How positive?</h2> <img class='center' style='height: 300px; width=450px;' src='stim/1710.bmp'><img class='center' src='scale/PleasantScale5.jpg'>","null","html-keyboard-response","20","15543","0.0-2.0-2.1","","","","",""
"342.01499982737005","<h2 style=""color:white; text-align:center;"">How negative?</h2> <img class='center' style='height: 300px; width=450px;' src='stim/1710.bmp'><img class='center' src='scale/BlankScaleUnpleasant.png'>","52","html-keyboard-response","21","15886","0.0-2.0-3.1","positive","puppies","unpleasant","2","4"
"null","<h2 style=""color:white; text-align:center;"">How negative?</h2> <img class='center' style='height: 300px; width=450px;' src='stim/1710.bmp'><img class='center' src='scale/UnpleasantScale4.jpg'>","null","html-keyboard-response","22","17891","0.0-2.0-4.1","","","","",""
"334.37500009313226","<h2 style=""color:white; text-align:center;"">How calm---excited?</h2> <img class='center' style='height: 300px; width=450px;' src='stim/1710.bmp'><img class='center' src='scale/BlankScaleArousal.png'>","51","html-keyboard-response","23","18227","0.0-2.0-5.1","positive","puppies","unpleasant","2","3"
"null","<h2 style=""color:white; text-align:center;"">How calm---excited?</h2> <img class='center' style='height: 300px; width=450px;' src='stim/1710.bmp'><img class='center' src='scale/ArousalScale3.jpg'>","null","html-keyboard-response","24","20233","0.0-2.0-6.1","","","","",""
"null","<div style=""color:white; font-size:60px;"">+</div>","null","html-keyboard-response","25","21239","0.0-2.0-0.2","","","","",""
"1520.2900001313537","<h2 style=""color:white; text-align:center;"">How positive?</h2> <img class='center' style='height: 300px; width=450px;' src='stim/2205.bmp'><img class='center' src='scale/BlankScalePleasant.png'>","51","html-keyboard-response","26","22761","0.0-2.0-1.2","negative","hospital","pleasant","3","3"
"null","<h2 style=""color:white; text-align:center;"">How positive?</h2> <img class='center' style='height: 300px; width=450px;' src='stim/2205.bmp'><img class='center' src='scale/PleasantScale3.jpg'>","null","html-keyboard-response","27","24767","0.0-2.0-2.2","","","","",""
"366.0899999085814","<h2 style=""color:white; text-align:center;"">How negative?</h2> <img class='center' style='height: 300px; width=450px;' src='stim/2205.bmp'><img class='center' src='scale/BlankScaleUnpleasant.png'>","51","html-keyboard-response","28","25135","0.0-2.0-3.2","negative","hospital","unpleasant","3","3"
"null","<h2 style=""color:white; text-align:center;"">How negative?</h2> <img class='center' style='height: 300px; width=450px;' src='stim/2205.bmp'><img class='center' src='scale/UnpleasantScale3.jpg'>","null","html-keyboard-response","29","27138","0.0-2.0-4.2","","","","",""
"362.5650000758469","<h2 style=""color:white; text-align:center;"">How calm---excited?</h2> <img class='center' style='height: 300px; width=450px;' src='stim/2205.bmp'><img class='center' src='scale/BlankScaleArousal.png'>","51","html-keyboard-response","30","27502","0.0-2.0-5.2","negative","hospital","unpleasant","3","3"
"null","<h2 style=""color:white; text-align:center;"">How calm---excited?</h2> <img class='center' style='height: 300px; width=450px;' src='stim/2205.bmp'><img class='center' src='scale/ArousalScale3.jpg'>","null","html-keyboard-response","31","29507","0.0-2.0-6.2","","","","",""
"null","<p style='color:white;'>You have completed this task. Please wait for the experimenter to continue.</p><p style='color:white;'>Data Saving...do not close this window until the text dissapears.</p>","null","html-keyboard-response","32","39511","0.0-3.0","","","","",""
