"rt","stimulus","key_press","trial_type","trial_index","time_elapsed","internal_node_id","test_part","values","sum","mean","median","min","max","count","variance","sd","frequencies","all","subset"
"851","<p style=""color:white;"">Welcome to the experiment! <br/>Press any key to begin.</p>","32","html-keyboard-response","0","857","0.0-0.0","","","","","","","","","","","","",""
"191","<p style=""color:white;"">You will now see a series of pictures </p><p style=""color:white;"">Some of the pictures will be positive, like pictures of babies.   </p><p style=""color:white;"">Some will be negative, like pictures of sharks or sad people. </p><p style=""color:white;""> Some will be neutral, like pictures of a clock or desk</p>","32","html-keyboard-response","1","1051","0.0-1.0","","","","","","","","","","","","",""
"188","<p style=""color:white;"">We want you to tell us how each picture makes you feel.</p> <p style=""color:white;"">You will make 3 ratings for each picture.</p> ","32","html-keyboard-response","2","1241","0.0-2.0","","","","","","","","","","","","",""
"180","<p style=""color:white;"">The first rating you will be asked to make is a rating of how pleasant you feel when you see the photo.</p> <p style=""color:white;"">""Pleasantness"" refers to how happy or good you feel when you see each photo and how much you like looking at it.</p> ","32","html-keyboard-response","3","1423","0.0-3.0","","","","","","","","","","","","",""
"156","<p style=""color:white;"">Pleasentness rating scale </p> <img class='center' style='width:500px; height:300px;' src='scale/BlankScalePleasant.png'></img>","32","html-keyboard-response","4","1581","0.0-4.0","","","","","","","","","","","","",""
"386","<p style=""color:white;"">The second rating you will be asked to make is a rating of how unpleasant you feel when you see the photo.</p> <p style=""color:white;"">""Unpleasantness"" refers to how bad or unhappy you feel when you see each photo.</p>","32","html-keyboard-response","5","1966","0.0-5.0","","","","","","","","","","","","",""
"207","<p style=""color:white;"">Unpleasentness rating scale</p> <img class='center' style='width:500px; height:300px;' src='scale/BlankScaleUnpleasant.png'></img>","32","html-keyboard-response","6","2177","0.0-6.0","","","","","","","","","","","","",""
"218","<p style=""color:white;"">You should decide how to rate each photo on the basis of how pleasant or unpleasant you feel when you see it.</p> <p style=""color:white;"">There are no ""right"" or ""wrong"" answers for rating the photos.</p> <p Just go by how much you like or dislike each one.</p> ","32","html-keyboard-response","7","2396","0.0-7.0","","","","","","","","","","","","",""
"664","<p style=""color:white;"">The third rating you will be asked to make is a rating of how arousing or exciting each picture makes you feel.</p> <p style=""color:white;"">""Arousing"" refers to how excited or keyed-up the photo makes you feel. Some of the pictures will be highly arousing and some will make you feel more calm or sleepy.</p> ","32","html-keyboard-response","8","3062","0.0-8.0","","","","","","","","","","","","",""
"745","<p style=""color:white;"">Arousal rating scale</p> <img class='center' style='width:600px; height:300px;' src='scale/BlankScaleArousal.png'></img>","32","html-keyboard-response","9","3811","0.0-9.0","","","","","","","","","","","","",""
"503","<p style=""color:white;"">Now we will have you rate some pictures for how positive, how negative, and how arousing they make you feel.</p> ","32","html-keyboard-response","10","4315","0.0-10.0","","","","","","","","","","","","",""
"null","<div style=""color:white; font-size:60px;"">+</div>","null","html-keyboard-response","11","5322","0.0-11.0-0.0","fixation","","","","","","","","","","","",""
"null","","null","html-keyboard-response","12","5826","0.0-11.0-1.0","","","","","","","","","","","","",""
"1109","<p style=""color:white; text-align:center;"">How pleasant?</p> <img class='center' style='width:500px; height:500px;' src='stim/8492.bmp'><img id='pleasant' class='center' src='scale/BlankScalePleasant.png'>","49","html-keyboard-response","13","6938","0.0-11.0-2.0","","","0","NaN","","Infinity","-Infinity","0","0","0","[object Object]","true","[object Object]"
"328","<p style=""color:white; text-align:center;"">How pleasant?</p> <img class='center' style='width:500px; height:500px;' src='stim/8492.bmp'><img id='pleasant' class='center' src='scale/PleasantScale1.jpg'>","32","html-keyboard-response","14","7445","0.0-11.0-3.0","","","0","NaN","","Infinity","-Infinity","0","0","0","[object Object]","true","[object Object]"
"80","","49","html-keyboard-response","15","7525","0.0-11.0-4.0","","","","","","","","","","","","",""
"553","<p style=""color:white; text-align:center;"">How unpleasant?</p> <img class='center' style='width:500px; height:500px;' src='stim/8492.bmp'><img class='center' src='scale/BlankScaleUnpleasant.png'>","49","html-keyboard-response","16","8079","0.0-11.0-5.0","","","0","NaN","","Infinity","-Infinity","0","0","0","[object Object]","true","[object Object]"
"null","<p style=""color:white; text-align:center;"">How unpleasant?</p> <img class='center' style='width:500px; height:500px;' src='stim/8492.bmp'><img id='pleasant' class='center' src='scale/UnpleasantScale1.jpg'>","null","html-keyboard-response","17","8585","0.0-11.0-6.0","","","0","NaN","","Infinity","-Infinity","0","0","0","[object Object]","true","[object Object]"
"181","","32","html-keyboard-response","18","8767","0.0-11.0-7.0","","","","","","","","","","","","",""
"495","<p style=""color:white; text-align:center;"">How arousing/exciting?</p> <img class='center' style='width:500px; height:500px;' src='stim/8492.bmp'><img class='center' src='scale/BlankScaleArousal.png'>","49","html-keyboard-response","19","9263","0.0-11.0-8.0","","","0","NaN","","Infinity","-Infinity","0","0","0","[object Object]","true","[object Object]"
"null","<p style=""color:white; text-align:center;"">How arousing/exciting?</p> <img class='center' style='width:500px; height:500px;' src='stim/8492.bmp'><img id='pleasant' class='center' src='scale/ArousalScale1.jpg'>","null","html-keyboard-response","20","9768","0.0-11.0-9.0","","","0","NaN","","Infinity","-Infinity","0","0","0","[object Object]","true","[object Object]"
"null","<div style=""color:white; font-size:60px;"">+</div>","null","html-keyboard-response","21","10771","0.0-11.0-0.1","fixation","","","","","","","","","","","",""
"null","","null","html-keyboard-response","22","11273","0.0-11.0-1.1","","","","","","","","","","","","",""
"839","<p style=""color:white; text-align:center;"">How pleasant?</p> <img class='center' style='width:500px; height:500px;' src='stim/4622.bmp'><img id='pleasant' class='center' src='scale/BlankScalePleasant.png'>","50","html-keyboard-response","23","12114","0.0-11.0-2.1","","","0","NaN","","Infinity","-Infinity","0","0","0","[object Object]","true","[object Object]"
"null","<p style=""color:white; text-align:center;"">How pleasant?</p> <img class='center' style='width:500px; height:500px;' src='stim/4622.bmp'><img id='pleasant' class='center' src='scale/PleasantScale2.jpg'>","null","html-keyboard-response","24","12621","0.0-11.0-3.1","","","0","NaN","","Infinity","-Infinity","0","0","0","[object Object]","true","[object Object]"
"null","","null","html-keyboard-response","25","13126","0.0-11.0-4.1","","","","","","","","","","","","",""
"442","<p style=""color:white; text-align:center;"">How unpleasant?</p> <img class='center' style='width:500px; height:500px;' src='stim/4622.bmp'><img class='center' src='scale/BlankScaleUnpleasant.png'>","50","html-keyboard-response","26","13568","0.0-11.0-5.1","","","0","NaN","","Infinity","-Infinity","0","0","0","[object Object]","true","[object Object]"
"410","<p style=""color:white; text-align:center;"">How unpleasant?</p> <img class='center' style='width:500px; height:500px;' src='stim/4622.bmp'><img id='pleasant' class='center' src='scale/UnpleasantScale2.jpg'>","50","html-keyboard-response","27","14071","0.0-11.0-6.1","","","0","NaN","","Infinity","-Infinity","0","0","0","[object Object]","true","[object Object]"
"null","","null","html-keyboard-response","28","14574","0.0-11.0-7.1","","","","","","","","","","","","",""
"2147","<p style=""color:white; text-align:center;"">How arousing/exciting?</p> <img class='center' style='width:500px; height:500px;' src='stim/4622.bmp'><img class='center' src='scale/BlankScaleArousal.png'>","50","html-keyboard-response","29","16723","0.0-11.0-8.1","","","0","NaN","","Infinity","-Infinity","0","0","0","[object Object]","true","[object Object]"
"null","<p style=""color:white; text-align:center;"">How arousing/exciting?</p> <img class='center' style='width:500px; height:500px;' src='stim/4622.bmp'><img id='pleasant' class='center' src='scale/ArousalScale2.jpg'>","null","html-keyboard-response","30","17230","0.0-11.0-9.1","","","0","NaN","","Infinity","-Infinity","0","0","0","[object Object]","true","[object Object]"
"null","<div style=""color:white; font-size:60px;"">+</div>","null","html-keyboard-response","31","18233","0.0-11.0-0.2","fixation","","","","","","","","","","","",""
"null","","null","html-keyboard-response","32","18735","0.0-11.0-1.2","","","","","","","","","","","","",""
"379","<p style=""color:white; text-align:center;"">How pleasant?</p> <img class='center' style='width:500px; height:500px;' src='stim/7000.bmp'><img id='pleasant' class='center' src='scale/BlankScalePleasant.png'>","50","html-keyboard-response","33","19115","0.0-11.0-2.2","","","0","NaN","","Infinity","-Infinity","0","0","0","[object Object]","true","[object Object]"
"null","<p style=""color:white; text-align:center;"">How pleasant?</p> <img class='center' style='width:500px; height:500px;' src='stim/7000.bmp'><img id='pleasant' class='center' src='scale/PleasantScale2.jpg'>","null","html-keyboard-response","34","19619","0.0-11.0-3.2","","","0","NaN","","Infinity","-Infinity","0","0","0","[object Object]","true","[object Object]"
"null","","null","html-keyboard-response","35","20124","0.0-11.0-4.2","","","","","","","","","","","","",""
"1593","<p style=""color:white; text-align:center;"">How unpleasant?</p> <img class='center' style='width:500px; height:500px;' src='stim/7000.bmp'><img class='center' src='scale/BlankScaleUnpleasant.png'>","50","html-keyboard-response","36","21717","0.0-11.0-5.2","","","0","NaN","","Infinity","-Infinity","0","0","0","[object Object]","true","[object Object]"
"null","<p style=""color:white; text-align:center;"">How unpleasant?</p> <img class='center' style='width:500px; height:500px;' src='stim/7000.bmp'><img id='pleasant' class='center' src='scale/UnpleasantScale2.jpg'>","null","html-keyboard-response","37","22224","0.0-11.0-6.2","","","0","NaN","","Infinity","-Infinity","0","0","0","[object Object]","true","[object Object]"
"null","","null","html-keyboard-response","38","22724","0.0-11.0-7.2","","","","","","","","","","","","",""
"111","<p style=""color:white; text-align:center;"">How arousing/exciting?</p> <img class='center' style='width:500px; height:500px;' src='stim/7000.bmp'><img class='center' src='scale/BlankScaleArousal.png'>","50","html-keyboard-response","39","22835","0.0-11.0-8.2","","","0","NaN","","Infinity","-Infinity","0","0","0","[object Object]","true","[object Object]"
"null","<p style=""color:white; text-align:center;"">How arousing/exciting?</p> <img class='center' style='width:500px; height:500px;' src='stim/7000.bmp'><img id='pleasant' class='center' src='scale/ArousalScale2.jpg'>","null","html-keyboard-response","40","23342","0.0-11.0-9.2","","","0","NaN","","Infinity","-Infinity","0","0","0","[object Object]","true","[object Object]"
"null","<div style=""color:white; font-size:60px;"">+</div>","null","html-keyboard-response","41","24346","0.0-11.0-0.3","fixation","","","","","","","","","","","",""
"null","","null","html-keyboard-response","42","24848","0.0-11.0-1.3","","","","","","","","","","","","",""
"753","<p style=""color:white; text-align:center;"">How pleasant?</p> <img class='center' style='width:500px; height:500px;' src='stim/9910.bmp'><img id='pleasant' class='center' src='scale/BlankScalePleasant.png'>","50","html-keyboard-response","43","25602","0.0-11.0-2.3","","","0","NaN","","Infinity","-Infinity","0","0","0","[object Object]","true","[object Object]"
"null","<p style=""color:white; text-align:center;"">How pleasant?</p> <img class='center' style='width:500px; height:500px;' src='stim/9910.bmp'><img id='pleasant' class='center' src='scale/PleasantScale2.jpg'>","null","html-keyboard-response","44","26105","0.0-11.0-3.3","","","0","NaN","","Infinity","-Infinity","0","0","0","[object Object]","true","[object Object]"
"null","","null","html-keyboard-response","45","26608","0.0-11.0-4.3","","","","","","","","","","","","",""
"968","<p style=""color:white; text-align:center;"">How unpleasant?</p> <img class='center' style='width:500px; height:500px;' src='stim/9910.bmp'><img class='center' src='scale/BlankScaleUnpleasant.png'>","50","html-keyboard-response","46","27578","0.0-11.0-5.3","","","0","NaN","","Infinity","-Infinity","0","0","0","[object Object]","true","[object Object]"
"null","<p style=""color:white; text-align:center;"">How unpleasant?</p> <img class='center' style='width:500px; height:500px;' src='stim/9910.bmp'><img id='pleasant' class='center' src='scale/UnpleasantScale2.jpg'>","null","html-keyboard-response","47","28081","0.0-11.0-6.3","","","0","NaN","","Infinity","-Infinity","0","0","0","[object Object]","true","[object Object]"
"null","","null","html-keyboard-response","48","28583","0.0-11.0-7.3","","","","","","","","","","","","",""
"70","<p style=""color:white; text-align:center;"">How arousing/exciting?</p> <img class='center' style='width:500px; height:500px;' src='stim/9910.bmp'><img class='center' src='scale/BlankScaleArousal.png'>","50","html-keyboard-response","49","28653","0.0-11.0-8.3","","","0","NaN","","Infinity","-Infinity","0","0","0","[object Object]","true","[object Object]"
"null","<p style=""color:white; text-align:center;"">How arousing/exciting?</p> <img class='center' style='width:500px; height:500px;' src='stim/9910.bmp'><img id='pleasant' class='center' src='scale/ArousalScale2.jpg'>","null","html-keyboard-response","50","29157","0.0-11.0-9.3","","","0","NaN","","Infinity","-Infinity","0","0","0","[object Object]","true","[object Object]"
"null","<div style=""color:white; font-size:60px;"">+</div>","null","html-keyboard-response","51","30163","0.0-11.0-0.4","fixation","","","","","","","","","","","",""
"null","","null","html-keyboard-response","52","30667","0.0-11.0-1.4","","","","","","","","","","","","",""
"2690","<p style=""color:white; text-align:center;"">How pleasant?</p> <img class='center' style='width:500px; height:500px;' src='stim/7010.bmp'><img id='pleasant' class='center' src='scale/BlankScalePleasant.png'>","51","html-keyboard-response","53","33358","0.0-11.0-2.4","","","0","NaN","","Infinity","-Infinity","0","0","0","[object Object]","true","[object Object]"
"null","<p style=""color:white; text-align:center;"">How pleasant?</p> <img class='center' style='width:500px; height:500px;' src='stim/7010.bmp'><img id='pleasant' class='center' src='scale/PleasantScale3.jpg'>","null","html-keyboard-response","54","33863","0.0-11.0-3.4","","","0","NaN","","Infinity","-Infinity","0","0","0","[object Object]","true","[object Object]"
"null","","null","html-keyboard-response","55","34368","0.0-11.0-4.4","","","","","","","","","","","","",""
"303","<p style=""color:white; text-align:center;"">How unpleasant?</p> <img class='center' style='width:500px; height:500px;' src='stim/7010.bmp'><img class='center' src='scale/BlankScaleUnpleasant.png'>","51","html-keyboard-response","56","34673","0.0-11.0-5.4","","","0","NaN","","Infinity","-Infinity","0","0","0","[object Object]","true","[object Object]"
"null","<p style=""color:white; text-align:center;"">How unpleasant?</p> <img class='center' style='width:500px; height:500px;' src='stim/7010.bmp'><img id='pleasant' class='center' src='scale/UnpleasantScale3.jpg'>","null","html-keyboard-response","57","35175","0.0-11.0-6.4","","","0","NaN","","Infinity","-Infinity","0","0","0","[object Object]","true","[object Object]"
"384","","51","html-keyboard-response","58","35560","0.0-11.0-7.4","","","","","","","","","","","","",""
"773","<p style=""color:white; text-align:center;"">How arousing/exciting?</p> <img class='center' style='width:500px; height:500px;' src='stim/7010.bmp'><img class='center' src='scale/BlankScaleArousal.png'>","51","html-keyboard-response","59","36336","0.0-11.0-8.4","","","0","NaN","","Infinity","-Infinity","0","0","0","[object Object]","true","[object Object]"
"null","<p style=""color:white; text-align:center;"">How arousing/exciting?</p> <img class='center' style='width:500px; height:500px;' src='stim/7010.bmp'><img id='pleasant' class='center' src='scale/ArousalScale3.jpg'>","null","html-keyboard-response","60","36842","0.0-11.0-9.4","","","0","NaN","","Infinity","-Infinity","0","0","0","[object Object]","true","[object Object]"
"null","<div style=""color:white; font-size:60px;"">+</div>","null","html-keyboard-response","61","37845","0.0-11.0-0.5","fixation","","","","","","","","","","","",""
"null","","null","html-keyboard-response","62","38350","0.0-11.0-1.5","","","","","","","","","","","","",""
"649","<p style=""color:white; text-align:center;"">How pleasant?</p> <img class='center' style='width:500px; height:500px;' src='stim/5836.bmp'><img id='pleasant' class='center' src='scale/BlankScalePleasant.png'>","51","html-keyboard-response","63","38998","0.0-11.0-2.5","","","0","NaN","","Infinity","-Infinity","0","0","0","[object Object]","true","[object Object]"
"null","<p style=""color:white; text-align:center;"">How pleasant?</p> <img class='center' style='width:500px; height:500px;' src='stim/5836.bmp'><img id='pleasant' class='center' src='scale/PleasantScale3.jpg'>","null","html-keyboard-response","64","39501","0.0-11.0-3.5","","","0","NaN","","Infinity","-Infinity","0","0","0","[object Object]","true","[object Object]"
"null","","null","html-keyboard-response","65","40007","0.0-11.0-4.5","","","","","","","","","","","","",""
"528","<p style=""color:white; text-align:center;"">How unpleasant?</p> <img class='center' style='width:500px; height:500px;' src='stim/5836.bmp'><img class='center' src='scale/BlankScaleUnpleasant.png'>","51","html-keyboard-response","66","40536","0.0-11.0-5.5","","","0","NaN","","Infinity","-Infinity","0","0","0","[object Object]","true","[object Object]"
"null","<p style=""color:white; text-align:center;"">How unpleasant?</p> <img class='center' style='width:500px; height:500px;' src='stim/5836.bmp'><img id='pleasant' class='center' src='scale/UnpleasantScale3.jpg'>","null","html-keyboard-response","67","41037","0.0-11.0-6.5","","","0","NaN","","Infinity","-Infinity","0","0","0","[object Object]","true","[object Object]"
"null","","null","html-keyboard-response","68","41542","0.0-11.0-7.5","","","","","","","","","","","","",""
"352","<p style=""color:white; text-align:center;"">How arousing/exciting?</p> <img class='center' style='width:500px; height:500px;' src='stim/5836.bmp'><img class='center' src='scale/BlankScaleArousal.png'>","51","html-keyboard-response","69","41896","0.0-11.0-8.5","","","0","NaN","","Infinity","-Infinity","0","0","0","[object Object]","true","[object Object]"
"null","<p style=""color:white; text-align:center;"">How arousing/exciting?</p> <img class='center' style='width:500px; height:500px;' src='stim/5836.bmp'><img id='pleasant' class='center' src='scale/ArousalScale3.jpg'>","null","html-keyboard-response","70","42402","0.0-11.0-9.5","","","0","NaN","","Infinity","-Infinity","0","0","0","[object Object]","true","[object Object]"
"null","<div style=""color:white; font-size:60px;"">+</div>","null","html-keyboard-response","71","43405","0.0-11.0-0.6","fixation","","","","","","","","","","","",""
"null","","null","html-keyboard-response","72","43912","0.0-11.0-1.6","","","","","","","","","","","","",""
"1405","<p style=""color:white; text-align:center;"">How pleasant?</p> <img class='center' style='width:500px; height:500px;' src='stim/4601.bmp'><img id='pleasant' class='center' src='scale/BlankScalePleasant.png'>","52","html-keyboard-response","73","45318","0.0-11.0-2.6","","","0","NaN","","Infinity","-Infinity","0","0","0","[object Object]","true","[object Object]"
"null","<p style=""color:white; text-align:center;"">How pleasant?</p> <img class='center' style='width:500px; height:500px;' src='stim/4601.bmp'><img id='pleasant' class='center' src='scale/PleasantScale4.jpg'>","null","html-keyboard-response","74","45824","0.0-11.0-3.6","","","0","NaN","","Infinity","-Infinity","0","0","0","[object Object]","true","[object Object]"
"null","","null","html-keyboard-response","75","46328","0.0-11.0-4.6","","","","","","","","","","","","",""
"1011","<p style=""color:white; text-align:center;"">How unpleasant?</p> <img class='center' style='width:500px; height:500px;' src='stim/4601.bmp'><img class='center' src='scale/BlankScaleUnpleasant.png'>","52","html-keyboard-response","76","47340","0.0-11.0-5.6","","","0","NaN","","Infinity","-Infinity","0","0","0","[object Object]","true","[object Object]"
"null","<p style=""color:white; text-align:center;"">How unpleasant?</p> <img class='center' style='width:500px; height:500px;' src='stim/4601.bmp'><img id='pleasant' class='center' src='scale/UnpleasantScale4.jpg'>","null","html-keyboard-response","77","47847","0.0-11.0-6.6","","","0","NaN","","Infinity","-Infinity","0","0","0","[object Object]","true","[object Object]"
"null","","null","html-keyboard-response","78","48352","0.0-11.0-7.6","","","","","","","","","","","","",""
"1148","<p style=""color:white; text-align:center;"">How arousing/exciting?</p> <img class='center' style='width:500px; height:500px;' src='stim/4601.bmp'><img class='center' src='scale/BlankScaleArousal.png'>","52","html-keyboard-response","79","49503","0.0-11.0-8.6","","","0","NaN","","Infinity","-Infinity","0","0","0","[object Object]","true","[object Object]"
"null","<p style=""color:white; text-align:center;"">How arousing/exciting?</p> <img class='center' style='width:500px; height:500px;' src='stim/4601.bmp'><img id='pleasant' class='center' src='scale/ArousalScale4.jpg'>","null","html-keyboard-response","80","50008","0.0-11.0-9.6","","","0","NaN","","Infinity","-Infinity","0","0","0","[object Object]","true","[object Object]"
"null","<div style=""color:white; font-size:60px;"">+</div>","null","html-keyboard-response","81","51013","0.0-11.0-0.7","fixation","","","","","","","","","","","",""
"null","","null","html-keyboard-response","82","51514","0.0-11.0-1.7","","","","","","","","","","","","",""
"1984","<p style=""color:white; text-align:center;"">How pleasant?</p> <img class='center' style='width:500px; height:500px;' src='stim/7017.bmp'><img id='pleasant' class='center' src='scale/BlankScalePleasant.png'>","53","html-keyboard-response","83","53499","0.0-11.0-2.7","","","0","NaN","","Infinity","-Infinity","0","0","0","[object Object]","true","[object Object]"
"null","<p style=""color:white; text-align:center;"">How pleasant?</p> <img class='center' style='width:500px; height:500px;' src='stim/7017.bmp'><img id='pleasant' class='center' src='scale/PleasantScale5.jpg'>","null","html-keyboard-response","84","54003","0.0-11.0-3.7","","","0","NaN","","Infinity","-Infinity","0","0","0","[object Object]","true","[object Object]"
"null","","null","html-keyboard-response","85","54506","0.0-11.0-4.7","","","","","","","","","","","","",""
"8","<p style=""color:white; text-align:center;"">How unpleasant?</p> <img class='center' style='width:500px; height:500px;' src='stim/7017.bmp'><img class='center' src='scale/BlankScaleUnpleasant.png'>","53","html-keyboard-response","86","54516","0.0-11.0-5.7","","","0","NaN","","Infinity","-Infinity","0","0","0","[object Object]","true","[object Object]"
"null","<p style=""color:white; text-align:center;"">How unpleasant?</p> <img class='center' style='width:500px; height:500px;' src='stim/7017.bmp'><img id='pleasant' class='center' src='scale/UnleasantScale5.jpg'>","null","html-keyboard-response","87","55022","0.0-11.0-6.7","","","0","NaN","","Infinity","-Infinity","0","0","0","[object Object]","true","[object Object]"
"null","","null","html-keyboard-response","88","55524","0.0-11.0-7.7","","","","","","","","","","","","",""
"402","<p style=""color:white; text-align:center;"">How arousing/exciting?</p> <img class='center' style='width:500px; height:500px;' src='stim/7017.bmp'><img class='center' src='scale/BlankScaleArousal.png'>","53","html-keyboard-response","89","55927","0.0-11.0-8.7","","","0","NaN","","Infinity","-Infinity","0","0","0","[object Object]","true","[object Object]"
"441","<p style=""color:white; text-align:center;"">How arousing/exciting?</p> <img class='center' style='width:500px; height:500px;' src='stim/7017.bmp'><img id='pleasant' class='center' src='scale/ArousalScale5.jpg'>","53","html-keyboard-response","90","56433","0.0-11.0-9.7","","","0","NaN","","Infinity","-Infinity","0","0","0","[object Object]","true","[object Object]"
"null","<div style=""color:white; font-size:60px;"">+</div>","null","html-keyboard-response","91","57437","0.0-11.0-0.8","fixation","","","","","","","","","","","",""
"null","","null","html-keyboard-response","92","57941","0.0-11.0-1.8","","","","","","","","","","","","",""
"919","<p style=""color:white; text-align:center;"">How pleasant?</p> <img class='center' style='width:500px; height:500px;' src='stim/8312.bmp'><img id='pleasant' class='center' src='scale/BlankScalePleasant.png'>","53","html-keyboard-response","93","58864","0.0-11.0-2.8","","","0","NaN","","Infinity","-Infinity","0","0","0","[object Object]","true","[object Object]"
"null","<p style=""color:white; text-align:center;"">How pleasant?</p> <img class='center' style='width:500px; height:500px;' src='stim/8312.bmp'><img id='pleasant' class='center' src='scale/PleasantScale5.jpg'>","null","html-keyboard-response","94","59370","0.0-11.0-3.8","","","0","NaN","","Infinity","-Infinity","0","0","0","[object Object]","true","[object Object]"
"null","","null","html-keyboard-response","95","59870","0.0-11.0-4.8","","","","","","","","","","","","",""
"3780","<p style=""color:white; text-align:center;"">How unpleasant?</p> <img class='center' style='width:500px; height:500px;' src='stim/8312.bmp'><img class='center' src='scale/BlankScaleUnpleasant.png'>","53","html-keyboard-response","96","63653","0.0-11.0-5.8","","","0","NaN","","Infinity","-Infinity","0","0","0","[object Object]","true","[object Object]"
"null","<p style=""color:white; text-align:center;"">How unpleasant?</p> <img class='center' style='width:500px; height:500px;' src='stim/8312.bmp'><img id='pleasant' class='center' src='scale/UnleasantScale5.jpg'>","null","html-keyboard-response","97","64162","0.0-11.0-6.8","","","0","NaN","","Infinity","-Infinity","0","0","0","[object Object]","true","[object Object]"
"null","","null","html-keyboard-response","98","64665","0.0-11.0-7.8","","","","","","","","","","","","",""
"598","<p style=""color:white; text-align:center;"">How arousing/exciting?</p> <img class='center' style='width:500px; height:500px;' src='stim/8312.bmp'><img class='center' src='scale/BlankScaleArousal.png'>","53","html-keyboard-response","99","65266","0.0-11.0-8.8","","","0","NaN","","Infinity","-Infinity","0","0","0","[object Object]","true","[object Object]"
"null","<p style=""color:white; text-align:center;"">How arousing/exciting?</p> <img class='center' style='width:500px; height:500px;' src='stim/8312.bmp'><img id='pleasant' class='center' src='scale/ArousalScale5.jpg'>","null","html-keyboard-response","100","65773","0.0-11.0-9.8","","","0","NaN","","Infinity","-Infinity","0","0","0","[object Object]","true","[object Object]"
"null","<div style=""color:white; font-size:60px;"">+</div>","null","html-keyboard-response","101","66776","0.0-11.0-0.9","fixation","","","","","","","","","","","",""
"null","","null","html-keyboard-response","102","67283","0.0-11.0-1.9","","","","","","","","","","","","",""
"483","<p style=""color:white; text-align:center;"">How pleasant?</p> <img class='center' style='width:500px; height:500px;' src='stim/9921.bmp'><img id='pleasant' class='center' src='scale/BlankScalePleasant.png'>","53","html-keyboard-response","103","67770","0.0-11.0-2.9","","","0","NaN","","Infinity","-Infinity","0","0","0","[object Object]","true","[object Object]"
"null","<p style=""color:white; text-align:center;"">How pleasant?</p> <img class='center' style='width:500px; height:500px;' src='stim/9921.bmp'><img id='pleasant' class='center' src='scale/PleasantScale5.jpg'>","null","html-keyboard-response","104","68276","0.0-11.0-3.9","","","0","NaN","","Infinity","-Infinity","0","0","0","[object Object]","true","[object Object]"
"null","","null","html-keyboard-response","105","68778","0.0-11.0-4.9","","","","","","","","","","","","",""
"573","<p style=""color:white; text-align:center;"">How unpleasant?</p> <img class='center' style='width:500px; height:500px;' src='stim/9921.bmp'><img class='center' src='scale/BlankScaleUnpleasant.png'>","53","html-keyboard-response","106","69352","0.0-11.0-5.9","","","0","NaN","","Infinity","-Infinity","0","0","0","[object Object]","true","[object Object]"
"null","<p style=""color:white; text-align:center;"">How unpleasant?</p> <img class='center' style='width:500px; height:500px;' src='stim/9921.bmp'><img id='pleasant' class='center' src='scale/UnleasantScale5.jpg'>","null","html-keyboard-response","107","69857","0.0-11.0-6.9","","","0","NaN","","Infinity","-Infinity","0","0","0","[object Object]","true","[object Object]"
"null","","null","html-keyboard-response","108","70363","0.0-11.0-7.9","","","","","","","","","","","","",""
"871","<p style=""color:white; text-align:center;"">How arousing/exciting?</p> <img class='center' style='width:500px; height:500px;' src='stim/9921.bmp'><img class='center' src='scale/BlankScaleArousal.png'>","53","html-keyboard-response","109","71234","0.0-11.0-8.9","","","0","NaN","","Infinity","-Infinity","0","0","0","[object Object]","true","[object Object]"
"null","<p style=""color:white; text-align:center;"">How arousing/exciting?</p> <img class='center' style='width:500px; height:500px;' src='stim/9921.bmp'><img id='pleasant' class='center' src='scale/ArousalScale5.jpg'>","null","html-keyboard-response","110","71738","0.0-11.0-9.9","","","0","NaN","","Infinity","-Infinity","0","0","0","[object Object]","true","[object Object]"
"null","<div style=""color:white; font-size:60px;"">+</div>","null","html-keyboard-response","111","72743","0.0-11.0-0.10","fixation","","","","","","","","","","","",""
"null","","null","html-keyboard-response","112","73247","0.0-11.0-1.10","","","","","","","","","","","","",""
"2113","<p style=""color:white; text-align:center;"">How pleasant?</p> <img class='center' style='width:500px; height:500px;' src='stim/7011.bmp'><img id='pleasant' class='center' src='scale/BlankScalePleasant.png'>","49","html-keyboard-response","113","75361","0.0-11.0-2.10","","","0","NaN","","Infinity","-Infinity","0","0","0","[object Object]","true","[object Object]"
"null","<p style=""color:white; text-align:center;"">How pleasant?</p> <img class='center' style='width:500px; height:500px;' src='stim/7011.bmp'><img id='pleasant' class='center' src='scale/PleasantScale1.jpg'>","null","html-keyboard-response","114","75866","0.0-11.0-3.10","","","0","NaN","","Infinity","-Infinity","0","0","0","[object Object]","true","[object Object]"
"null","","null","html-keyboard-response","115","76369","0.0-11.0-4.10","","","","","","","","","","","","",""
"327","<p style=""color:white; text-align:center;"">How unpleasant?</p> <img class='center' style='width:500px; height:500px;' src='stim/7011.bmp'><img class='center' src='scale/BlankScaleUnpleasant.png'>","49","html-keyboard-response","116","76696","0.0-11.0-5.10","","","0","NaN","","Infinity","-Infinity","0","0","0","[object Object]","true","[object Object]"
"null","<p style=""color:white; text-align:center;"">How unpleasant?</p> <img class='center' style='width:500px; height:500px;' src='stim/7011.bmp'><img id='pleasant' class='center' src='scale/UnpleasantScale1.jpg'>","null","html-keyboard-response","117","77200","0.0-11.0-6.10","","","0","NaN","","Infinity","-Infinity","0","0","0","[object Object]","true","[object Object]"
"null","","null","html-keyboard-response","118","77705","0.0-11.0-7.10","","","","","","","","","","","","",""
"348","<p style=""color:white; text-align:center;"">How arousing/exciting?</p> <img class='center' style='width:500px; height:500px;' src='stim/7011.bmp'><img class='center' src='scale/BlankScaleArousal.png'>","49","html-keyboard-response","119","78054","0.0-11.0-8.10","","","0","NaN","","Infinity","-Infinity","0","0","0","[object Object]","true","[object Object]"
"null","<p style=""color:white; text-align:center;"">How arousing/exciting?</p> <img class='center' style='width:500px; height:500px;' src='stim/7011.bmp'><img id='pleasant' class='center' src='scale/ArousalScale1.jpg'>","null","html-keyboard-response","120","78562","0.0-11.0-9.10","","","0","NaN","","Infinity","-Infinity","0","0","0","[object Object]","true","[object Object]"
"null","<div style=""color:white; font-size:60px;"">+</div>","null","html-keyboard-response","121","79568","0.0-11.0-0.11","fixation","","","","","","","","","","","",""
"null","","null","html-keyboard-response","122","80069","0.0-11.0-1.11","","","","","","","","","","","","",""
"737","<p style=""color:white; text-align:center;"">How pleasant?</p> <img class='center' style='width:500px; height:500px;' src='stim/2190.bmp'><img id='pleasant' class='center' src='scale/BlankScalePleasant.png'>","53","html-keyboard-response","123","80807","0.0-11.0-2.11","","","0","NaN","","Infinity","-Infinity","0","0","0","[object Object]","true","[object Object]"
"null","<p style=""color:white; text-align:center;"">How pleasant?</p> <img class='center' style='width:500px; height:500px;' src='stim/2190.bmp'><img id='pleasant' class='center' src='scale/PleasantScale5.jpg'>","null","html-keyboard-response","124","81313","0.0-11.0-3.11","","","0","NaN","","Infinity","-Infinity","0","0","0","[object Object]","true","[object Object]"
"null","","null","html-keyboard-response","125","81814","0.0-11.0-4.11","","","","","","","","","","","","",""
"313","<p style=""color:white; text-align:center;"">How unpleasant?</p> <img class='center' style='width:500px; height:500px;' src='stim/2190.bmp'><img class='center' src='scale/BlankScaleUnpleasant.png'>","53","html-keyboard-response","126","82128","0.0-11.0-5.11","","","0","NaN","","Infinity","-Infinity","0","0","0","[object Object]","true","[object Object]"
"null","<p style=""color:white; text-align:center;"">How unpleasant?</p> <img class='center' style='width:500px; height:500px;' src='stim/2190.bmp'><img id='pleasant' class='center' src='scale/UnleasantScale5.jpg'>","null","html-keyboard-response","127","82633","0.0-11.0-6.11","","","0","NaN","","Infinity","-Infinity","0","0","0","[object Object]","true","[object Object]"
"null","","null","html-keyboard-response","128","83137","0.0-11.0-7.11","","","","","","","","","","","","",""
"479","<p style=""color:white; text-align:center;"">How arousing/exciting?</p> <img class='center' style='width:500px; height:500px;' src='stim/2190.bmp'><img class='center' src='scale/BlankScaleArousal.png'>","53","html-keyboard-response","129","83618","0.0-11.0-8.11","","","0","NaN","","Infinity","-Infinity","0","0","0","[object Object]","true","[object Object]"
"null","<p style=""color:white; text-align:center;"">How arousing/exciting?</p> <img class='center' style='width:500px; height:500px;' src='stim/2190.bmp'><img id='pleasant' class='center' src='scale/ArousalScale5.jpg'>","null","html-keyboard-response","130","84122","0.0-11.0-9.11","","","0","NaN","","Infinity","-Infinity","0","0","0","[object Object]","true","[object Object]"
"null","<div style=""color:white; font-size:60px;"">+</div>","null","html-keyboard-response","131","85127","0.0-11.0-0.12","fixation","","","","","","","","","","","",""
"null","","null","html-keyboard-response","132","85631","0.0-11.0-1.12","","","","","","","","","","","","",""
"896","<p style=""color:white; text-align:center;"">How pleasant?</p> <img class='center' style='width:500px; height:500px;' src='stim/7187.bmp'><img id='pleasant' class='center' src='scale/BlankScalePleasant.png'>","53","html-keyboard-response","133","86528","0.0-11.0-2.12","","","0","NaN","","Infinity","-Infinity","0","0","0","[object Object]","true","[object Object]"
"null","<p style=""color:white; text-align:center;"">How pleasant?</p> <img class='center' style='width:500px; height:500px;' src='stim/7187.bmp'><img id='pleasant' class='center' src='scale/PleasantScale5.jpg'>","null","html-keyboard-response","134","87033","0.0-11.0-3.12","","","0","NaN","","Infinity","-Infinity","0","0","0","[object Object]","true","[object Object]"
"null","","null","html-keyboard-response","135","87537","0.0-11.0-4.12","","","","","","","","","","","","",""
"457","<p style=""color:white; text-align:center;"">How unpleasant?</p> <img class='center' style='width:500px; height:500px;' src='stim/7187.bmp'><img class='center' src='scale/BlankScaleUnpleasant.png'>","53","html-keyboard-response","136","87994","0.0-11.0-5.12","","","0","NaN","","Infinity","-Infinity","0","0","0","[object Object]","true","[object Object]"
"null","<p style=""color:white; text-align:center;"">How unpleasant?</p> <img class='center' style='width:500px; height:500px;' src='stim/7187.bmp'><img id='pleasant' class='center' src='scale/UnleasantScale5.jpg'>","null","html-keyboard-response","137","88500","0.0-11.0-6.12","","","0","NaN","","Infinity","-Infinity","0","0","0","[object Object]","true","[object Object]"
"null","","null","html-keyboard-response","138","89005","0.0-11.0-7.12","","","","","","","","","","","","",""
"1310","<p style=""color:white; text-align:center;"">How arousing/exciting?</p> <img class='center' style='width:500px; height:500px;' src='stim/7187.bmp'><img class='center' src='scale/BlankScaleArousal.png'>","53","html-keyboard-response","139","90316","0.0-11.0-8.12","","","0","NaN","","Infinity","-Infinity","0","0","0","[object Object]","true","[object Object]"
"null","<p style=""color:white; text-align:center;"">How arousing/exciting?</p> <img class='center' style='width:500px; height:500px;' src='stim/7187.bmp'><img id='pleasant' class='center' src='scale/ArousalScale5.jpg'>","null","html-keyboard-response","140","90822","0.0-11.0-9.12","","","0","NaN","","Infinity","-Infinity","0","0","0","[object Object]","true","[object Object]"
"null","<div style=""color:white; font-size:60px;"">+</div>","null","html-keyboard-response","141","91826","0.0-11.0-0.13","fixation","","","","","","","","","","","",""
"null","","null","html-keyboard-response","142","92327","0.0-11.0-1.13","","","","","","","","","","","","",""
"1310","<p style=""color:white; text-align:center;"">How pleasant?</p> <img class='center' style='width:500px; height:500px;' src='stim/9183.bmp'><img id='pleasant' class='center' src='scale/BlankScalePleasant.png'>","53","html-keyboard-response","143","93639","0.0-11.0-2.13","","","0","NaN","","Infinity","-Infinity","0","0","0","[object Object]","true","[object Object]"
"null","<p style=""color:white; text-align:center;"">How pleasant?</p> <img class='center' style='width:500px; height:500px;' src='stim/9183.bmp'><img id='pleasant' class='center' src='scale/PleasantScale5.jpg'>","null","html-keyboard-response","144","94145","0.0-11.0-3.13","","","0","NaN","","Infinity","-Infinity","0","0","0","[object Object]","true","[object Object]"
"null","","null","html-keyboard-response","145","94650","0.0-11.0-4.13","","","","","","","","","","","","",""
"757","<p style=""color:white; text-align:center;"">How unpleasant?</p> <img class='center' style='width:500px; height:500px;' src='stim/9183.bmp'><img class='center' src='scale/BlankScaleUnpleasant.png'>","53","html-keyboard-response","146","95407","0.0-11.0-5.13","","","0","NaN","","Infinity","-Infinity","0","0","0","[object Object]","true","[object Object]"
"null","<p style=""color:white; text-align:center;"">How unpleasant?</p> <img class='center' style='width:500px; height:500px;' src='stim/9183.bmp'><img id='pleasant' class='center' src='scale/UnleasantScale5.jpg'>","null","html-keyboard-response","147","95910","0.0-11.0-6.13","","","0","NaN","","Infinity","-Infinity","0","0","0","[object Object]","true","[object Object]"
"null","","null","html-keyboard-response","148","96415","0.0-11.0-7.13","","","","","","","","","","","","",""
"58540","<p style=""color:white; text-align:center;"">How arousing/exciting?</p> <img class='center' style='width:500px; height:500px;' src='stim/9183.bmp'><img class='center' src='scale/BlankScaleArousal.png'>","53","html-keyboard-response","149","154955","0.0-11.0-8.13","","","0","NaN","","Infinity","-Infinity","0","0","0","[object Object]","true","[object Object]"
"null","<p style=""color:white; text-align:center;"">How arousing/exciting?</p> <img class='center' style='width:500px; height:500px;' src='stim/9183.bmp'><img id='pleasant' class='center' src='scale/ArousalScale5.jpg'>","null","html-keyboard-response","150","155462","0.0-11.0-9.13","","","0","NaN","","Infinity","-Infinity","0","0","0","[object Object]","true","[object Object]"
"null","<div style=""color:white; font-size:60px;"">+</div>","null","html-keyboard-response","151","156465","0.0-11.0-0.14","fixation","","","","","","","","","","","",""
"null","","null","html-keyboard-response","152","156966","0.0-11.0-1.14","","","","","","","","","","","","",""
"735","<p style=""color:white; text-align:center;"">How pleasant?</p> <img class='center' style='width:500px; height:500px;' src='stim/2751.bmp'><img id='pleasant' class='center' src='scale/BlankScalePleasant.png'>","53","html-keyboard-response","153","157704","0.0-11.0-2.14","","","0","NaN","","Infinity","-Infinity","0","0","0","[object Object]","true","[object Object]"
"null","<p style=""color:white; text-align:center;"">How pleasant?</p> <img class='center' style='width:500px; height:500px;' src='stim/2751.bmp'><img id='pleasant' class='center' src='scale/PleasantScale5.jpg'>","null","html-keyboard-response","154","158210","0.0-11.0-3.14","","","0","NaN","","Infinity","-Infinity","0","0","0","[object Object]","true","[object Object]"
"null","","null","html-keyboard-response","155","158713","0.0-11.0-4.14","","","","","","","","","","","","",""
"503","<p style=""color:white; text-align:center;"">How unpleasant?</p> <img class='center' style='width:500px; height:500px;' src='stim/2751.bmp'><img class='center' src='scale/BlankScaleUnpleasant.png'>","53","html-keyboard-response","156","159218","0.0-11.0-5.14","","","0","NaN","","Infinity","-Infinity","0","0","0","[object Object]","true","[object Object]"
"null","<p style=""color:white; text-align:center;"">How unpleasant?</p> <img class='center' style='width:500px; height:500px;' src='stim/2751.bmp'><img id='pleasant' class='center' src='scale/UnleasantScale5.jpg'>","null","html-keyboard-response","157","159724","0.0-11.0-6.14","","","0","NaN","","Infinity","-Infinity","0","0","0","[object Object]","true","[object Object]"
"null","","null","html-keyboard-response","158","160227","0.0-11.0-7.14","","","","","","","","","","","","",""
"616","<p style=""color:white; text-align:center;"">How arousing/exciting?</p> <img class='center' style='width:500px; height:500px;' src='stim/2751.bmp'><img class='center' src='scale/BlankScaleArousal.png'>","53","html-keyboard-response","159","160846","0.0-11.0-8.14","","","0","NaN","","Infinity","-Infinity","0","0","0","[object Object]","true","[object Object]"
"null","<p style=""color:white; text-align:center;"">How arousing/exciting?</p> <img class='center' style='width:500px; height:500px;' src='stim/2751.bmp'><img id='pleasant' class='center' src='scale/ArousalScale5.jpg'>","null","html-keyboard-response","160","161353","0.0-11.0-9.14","","","0","NaN","","Infinity","-Infinity","0","0","0","[object Object]","true","[object Object]"
"null","<div style=""color:white; font-size:60px;"">+</div>","null","html-keyboard-response","161","162356","0.0-11.0-0.15","fixation","","","","","","","","","","","",""
"null","","null","html-keyboard-response","162","162858","0.0-11.0-1.15","","","","","","","","","","","","",""
"594","<p style=""color:white; text-align:center;"">How pleasant?</p> <img class='center' style='width:500px; height:500px;' src='stim/8499.bmp'><img id='pleasant' class='center' src='scale/BlankScalePleasant.png'>","53","html-keyboard-response","163","163454","0.0-11.0-2.15","","","0","NaN","","Infinity","-Infinity","0","0","0","[object Object]","true","[object Object]"
"null","<p style=""color:white; text-align:center;"">How pleasant?</p> <img class='center' style='width:500px; height:500px;' src='stim/8499.bmp'><img id='pleasant' class='center' src='scale/PleasantScale5.jpg'>","null","html-keyboard-response","164","163959","0.0-11.0-3.15","","","0","NaN","","Infinity","-Infinity","0","0","0","[object Object]","true","[object Object]"
"null","","null","html-keyboard-response","165","164461","0.0-11.0-4.15","","","","","","","","","","","","",""
"966","<p style=""color:white; text-align:center;"">How unpleasant?</p> <img class='center' style='width:500px; height:500px;' src='stim/8499.bmp'><img class='center' src='scale/BlankScaleUnpleasant.png'>","51","html-keyboard-response","166","165428","0.0-11.0-5.15","","","0","NaN","","Infinity","-Infinity","0","0","0","[object Object]","true","[object Object]"
"null","<p style=""color:white; text-align:center;"">How unpleasant?</p> <img class='center' style='width:500px; height:500px;' src='stim/8499.bmp'><img id='pleasant' class='center' src='scale/UnpleasantScale3.jpg'>","null","html-keyboard-response","167","165935","0.0-11.0-6.15","","","0","NaN","","Infinity","-Infinity","0","0","0","[object Object]","true","[object Object]"
"null","","null","html-keyboard-response","168","166441","0.0-11.0-7.15","","","","","","","","","","","","",""
"1197","<p style=""color:white; text-align:center;"">How arousing/exciting?</p> <img class='center' style='width:500px; height:500px;' src='stim/8499.bmp'><img class='center' src='scale/BlankScaleArousal.png'>","51","html-keyboard-response","169","167640","0.0-11.0-8.15","","","0","NaN","","Infinity","-Infinity","0","0","0","[object Object]","true","[object Object]"
"null","<p style=""color:white; text-align:center;"">How arousing/exciting?</p> <img class='center' style='width:500px; height:500px;' src='stim/8499.bmp'><img id='pleasant' class='center' src='scale/ArousalScale3.jpg'>","null","html-keyboard-response","170","168144","0.0-11.0-9.15","","","0","NaN","","Infinity","-Infinity","0","0","0","[object Object]","true","[object Object]"
"null","<div style=""color:white; font-size:60px;"">+</div>","null","html-keyboard-response","171","169148","0.0-11.0-0.16","fixation","","","","","","","","","","","",""
"null","","null","html-keyboard-response","172","169649","0.0-11.0-1.16","","","","","","","","","","","","",""
"2460","<p style=""color:white; text-align:center;"">How pleasant?</p> <img class='center' style='width:500px; height:500px;' src='stim/7175.bmp'><img id='pleasant' class='center' src='scale/BlankScalePleasant.png'>","51","html-keyboard-response","173","172110","0.0-11.0-2.16","","","0","NaN","","Infinity","-Infinity","0","0","0","[object Object]","true","[object Object]"
"null","<p style=""color:white; text-align:center;"">How pleasant?</p> <img class='center' style='width:500px; height:500px;' src='stim/7175.bmp'><img id='pleasant' class='center' src='scale/PleasantScale3.jpg'>","null","html-keyboard-response","174","172616","0.0-11.0-3.16","","","0","NaN","","Infinity","-Infinity","0","0","0","[object Object]","true","[object Object]"
"null","","null","html-keyboard-response","175","173118","0.0-11.0-4.16","","","","","","","","","","","","",""
"1376","<p style=""color:white; text-align:center;"">How unpleasant?</p> <img class='center' style='width:500px; height:500px;' src='stim/7175.bmp'><img class='center' src='scale/BlankScaleUnpleasant.png'>","51","html-keyboard-response","176","174495","0.0-11.0-5.16","","","0","NaN","","Infinity","-Infinity","0","0","0","[object Object]","true","[object Object]"
"null","<p style=""color:white; text-align:center;"">How unpleasant?</p> <img class='center' style='width:500px; height:500px;' src='stim/7175.bmp'><img id='pleasant' class='center' src='scale/UnpleasantScale3.jpg'>","null","html-keyboard-response","177","175002","0.0-11.0-6.16","","","0","NaN","","Infinity","-Infinity","0","0","0","[object Object]","true","[object Object]"
"null","","null","html-keyboard-response","178","175504","0.0-11.0-7.16","","","","","","","","","","","","",""
"864","<p style=""color:white; text-align:center;"">How arousing/exciting?</p> <img class='center' style='width:500px; height:500px;' src='stim/7175.bmp'><img class='center' src='scale/BlankScaleArousal.png'>","51","html-keyboard-response","179","176370","0.0-11.0-8.16","","","0","NaN","","Infinity","-Infinity","0","0","0","[object Object]","true","[object Object]"
"null","<p style=""color:white; text-align:center;"">How arousing/exciting?</p> <img class='center' style='width:500px; height:500px;' src='stim/7175.bmp'><img id='pleasant' class='center' src='scale/ArousalScale3.jpg'>","null","html-keyboard-response","180","176875","0.0-11.0-9.16","","","0","NaN","","Infinity","-Infinity","0","0","0","[object Object]","true","[object Object]"
"null","<div style=""color:white; font-size:60px;"">+</div>","null","html-keyboard-response","181","177876","0.0-11.0-0.17","fixation","","","","","","","","","","","",""
"null","","null","html-keyboard-response","182","178378","0.0-11.0-1.17","","","","","","","","","","","","",""
"1256","<p style=""color:white; text-align:center;"">How pleasant?</p> <img class='center' style='width:500px; height:500px;' src='stim/5395.bmp'><img id='pleasant' class='center' src='scale/BlankScalePleasant.png'>","51","html-keyboard-response","183","179635","0.0-11.0-2.17","","","0","NaN","","Infinity","-Infinity","0","0","0","[object Object]","true","[object Object]"
"null","<p style=""color:white; text-align:center;"">How pleasant?</p> <img class='center' style='width:500px; height:500px;' src='stim/5395.bmp'><img id='pleasant' class='center' src='scale/PleasantScale3.jpg'>","null","html-keyboard-response","184","180139","0.0-11.0-3.17","","","0","NaN","","Infinity","-Infinity","0","0","0","[object Object]","true","[object Object]"
"null","","null","html-keyboard-response","185","180642","0.0-11.0-4.17","","","","","","","","","","","","",""
"412","<p style=""color:white; text-align:center;"">How unpleasant?</p> <img class='center' style='width:500px; height:500px;' src='stim/5395.bmp'><img class='center' src='scale/BlankScaleUnpleasant.png'>","51","html-keyboard-response","186","181056","0.0-11.0-5.17","","","0","NaN","","Infinity","-Infinity","0","0","0","[object Object]","true","[object Object]"
"null","<p style=""color:white; text-align:center;"">How unpleasant?</p> <img class='center' style='width:500px; height:500px;' src='stim/5395.bmp'><img id='pleasant' class='center' src='scale/UnpleasantScale3.jpg'>","null","html-keyboard-response","187","181562","0.0-11.0-6.17","","","0","NaN","","Infinity","-Infinity","0","0","0","[object Object]","true","[object Object]"
"null","","null","html-keyboard-response","188","182064","0.0-11.0-7.17","","","","","","","","","","","","",""
"815","<p style=""color:white; text-align:center;"">How arousing/exciting?</p> <img class='center' style='width:500px; height:500px;' src='stim/5395.bmp'><img class='center' src='scale/BlankScaleArousal.png'>","51","html-keyboard-response","189","182879","0.0-11.0-8.17","","","0","NaN","","Infinity","-Infinity","0","0","0","[object Object]","true","[object Object]"
"null","<p style=""color:white; text-align:center;"">How arousing/exciting?</p> <img class='center' style='width:500px; height:500px;' src='stim/5395.bmp'><img id='pleasant' class='center' src='scale/ArousalScale3.jpg'>","null","html-keyboard-response","190","183385","0.0-11.0-9.17","","","0","NaN","","Infinity","-Infinity","0","0","0","[object Object]","true","[object Object]"
"null","<div style=""color:white; font-size:60px;"">+</div>","null","html-keyboard-response","191","184391","0.0-11.0-0.18","fixation","","","","","","","","","","","",""
"null","","null","html-keyboard-response","192","184895","0.0-11.0-1.18","","","","","","","","","","","","",""
"54","<p style=""color:white; text-align:center;"">How pleasant?</p> <img class='center' style='width:500px; height:500px;' src='stim/2710.bmp'><img id='pleasant' class='center' src='scale/BlankScalePleasant.png'>","51","html-keyboard-response","193","184950","0.0-11.0-2.18","","","0","NaN","","Infinity","-Infinity","0","0","0","[object Object]","true","[object Object]"
"null","<p style=""color:white; text-align:center;"">How pleasant?</p> <img class='center' style='width:500px; height:500px;' src='stim/2710.bmp'><img id='pleasant' class='center' src='scale/PleasantScale3.jpg'>","null","html-keyboard-response","194","185456","0.0-11.0-3.18","","","0","NaN","","Infinity","-Infinity","0","0","0","[object Object]","true","[object Object]"
"null","","null","html-keyboard-response","195","185962","0.0-11.0-4.18","","","","","","","","","","","","",""
"2471","<p style=""color:white; text-align:center;"">How unpleasant?</p> <img class='center' style='width:500px; height:500px;' src='stim/2710.bmp'><img class='center' src='scale/BlankScaleUnpleasant.png'>","51","html-keyboard-response","196","188433","0.0-11.0-5.18","","","0","NaN","","Infinity","-Infinity","0","0","0","[object Object]","true","[object Object]"
"null","<p style=""color:white; text-align:center;"">How unpleasant?</p> <img class='center' style='width:500px; height:500px;' src='stim/2710.bmp'><img id='pleasant' class='center' src='scale/UnpleasantScale3.jpg'>","null","html-keyboard-response","197","188938","0.0-11.0-6.18","","","0","NaN","","Infinity","-Infinity","0","0","0","[object Object]","true","[object Object]"
"null","","null","html-keyboard-response","198","189442","0.0-11.0-7.18","","","","","","","","","","","","",""
"5345","<p style=""color:white; text-align:center;"">How arousing/exciting?</p> <img class='center' style='width:500px; height:500px;' src='stim/2710.bmp'><img class='center' src='scale/BlankScaleArousal.png'>","51","html-keyboard-response","199","194787","0.0-11.0-8.18","","","0","NaN","","Infinity","-Infinity","0","0","0","[object Object]","true","[object Object]"
"null","<p style=""color:white; text-align:center;"">How arousing/exciting?</p> <img class='center' style='width:500px; height:500px;' src='stim/2710.bmp'><img id='pleasant' class='center' src='scale/ArousalScale3.jpg'>","null","html-keyboard-response","200","195293","0.0-11.0-9.18","","","0","NaN","","Infinity","-Infinity","0","0","0","[object Object]","true","[object Object]"
"null","<div style=""color:white; font-size:60px;"">+</div>","null","html-keyboard-response","201","196297","0.0-11.0-0.19","fixation","","","","","","","","","","","",""
"349","","51","html-keyboard-response","202","196646","0.0-11.0-1.19","","","","","","","","","","","","",""
"2864","<p style=""color:white; text-align:center;"">How pleasant?</p> <img class='center' style='width:500px; height:500px;' src='stim/1710.bmp'><img id='pleasant' class='center' src='scale/BlankScalePleasant.png'>","51","html-keyboard-response","203","199511","0.0-11.0-2.19","","","0","NaN","","Infinity","-Infinity","0","0","0","[object Object]","true","[object Object]"
"null","<p style=""color:white; text-align:center;"">How pleasant?</p> <img class='center' style='width:500px; height:500px;' src='stim/1710.bmp'><img id='pleasant' class='center' src='scale/PleasantScale3.jpg'>","null","html-keyboard-response","204","200016","0.0-11.0-3.19","","","0","NaN","","Infinity","-Infinity","0","0","0","[object Object]","true","[object Object]"
"null","","null","html-keyboard-response","205","200519","0.0-11.0-4.19","","","","","","","","","","","","",""
"610","<p style=""color:white; text-align:center;"">How unpleasant?</p> <img class='center' style='width:500px; height:500px;' src='stim/1710.bmp'><img class='center' src='scale/BlankScaleUnpleasant.png'>","51","html-keyboard-response","206","201131","0.0-11.0-5.19","","","0","NaN","","Infinity","-Infinity","0","0","0","[object Object]","true","[object Object]"
"null","<p style=""color:white; text-align:center;"">How unpleasant?</p> <img class='center' style='width:500px; height:500px;' src='stim/1710.bmp'><img id='pleasant' class='center' src='scale/UnpleasantScale3.jpg'>","null","html-keyboard-response","207","201636","0.0-11.0-6.19","","","0","NaN","","Infinity","-Infinity","0","0","0","[object Object]","true","[object Object]"
"null","","null","html-keyboard-response","208","202141","0.0-11.0-7.19","","","","","","","","","","","","",""
"490","<p style=""color:white; text-align:center;"">How arousing/exciting?</p> <img class='center' style='width:500px; height:500px;' src='stim/1710.bmp'><img class='center' src='scale/BlankScaleArousal.png'>","51","html-keyboard-response","209","202635","0.0-11.0-8.19","","","0","NaN","","Infinity","-Infinity","0","0","0","[object Object]","true","[object Object]"
"null","<p style=""color:white; text-align:center;"">How arousing/exciting?</p> <img class='center' style='width:500px; height:500px;' src='stim/1710.bmp'><img id='pleasant' class='center' src='scale/ArousalScale3.jpg'>","null","html-keyboard-response","210","203141","0.0-11.0-9.19","","","0","NaN","","Infinity","-Infinity","0","0","0","[object Object]","true","[object Object]"
"null","<div style=""color:white; font-size:60px;"">+</div>","null","html-keyboard-response","211","204146","0.0-11.0-0.20","fixation","","","","","","","","","","","",""
"null","","null","html-keyboard-response","212","204650","0.0-11.0-1.20","","","","","","","","","","","","",""
"1374","<p style=""color:white; text-align:center;"">How pleasant?</p> <img class='center' style='width:500px; height:500px;' src='stim/8185.bmp'><img id='pleasant' class='center' src='scale/BlankScalePleasant.png'>","51","html-keyboard-response","213","206024","0.0-11.0-2.20","","","0","NaN","","Infinity","-Infinity","0","0","0","[object Object]","true","[object Object]"
"null","<p style=""color:white; text-align:center;"">How pleasant?</p> <img class='center' style='width:500px; height:500px;' src='stim/8185.bmp'><img id='pleasant' class='center' src='scale/PleasantScale3.jpg'>","null","html-keyboard-response","214","206530","0.0-11.0-3.20","","","0","NaN","","Infinity","-Infinity","0","0","0","[object Object]","true","[object Object]"
"null","","null","html-keyboard-response","215","207031","0.0-11.0-4.20","","","","","","","","","","","","",""
"1746","<p style=""color:white; text-align:center;"">How unpleasant?</p> <img class='center' style='width:500px; height:500px;' src='stim/8185.bmp'><img class='center' src='scale/BlankScaleUnpleasant.png'>","52","html-keyboard-response","216","208777","0.0-11.0-5.20","","","0","NaN","","Infinity","-Infinity","0","0","0","[object Object]","true","[object Object]"
"null","<p style=""color:white; text-align:center;"">How unpleasant?</p> <img class='center' style='width:500px; height:500px;' src='stim/8185.bmp'><img id='pleasant' class='center' src='scale/UnpleasantScale4.jpg'>","null","html-keyboard-response","217","209283","0.0-11.0-6.20","","","0","NaN","","Infinity","-Infinity","0","0","0","[object Object]","true","[object Object]"
"null","","null","html-keyboard-response","218","209786","0.0-11.0-7.20","","","","","","","","","","","","",""
"421","<p style=""color:white; text-align:center;"">How arousing/exciting?</p> <img class='center' style='width:500px; height:500px;' src='stim/8185.bmp'><img class='center' src='scale/BlankScaleArousal.png'>","52","html-keyboard-response","219","210208","0.0-11.0-8.20","","","0","NaN","","Infinity","-Infinity","0","0","0","[object Object]","true","[object Object]"
"null","<p style=""color:white; text-align:center;"">How arousing/exciting?</p> <img class='center' style='width:500px; height:500px;' src='stim/8185.bmp'><img id='pleasant' class='center' src='scale/ArousalScale4.jpg'>","null","html-keyboard-response","220","210713","0.0-11.0-9.20","","","0","NaN","","Infinity","-Infinity","0","0","0","[object Object]","true","[object Object]"
"null","<div style=""color:white; font-size:60px;"">+</div>","null","html-keyboard-response","221","211717","0.0-11.0-0.21","fixation","","","","","","","","","","","",""
"null","","null","html-keyboard-response","222","212222","0.0-11.0-1.21","","","","","","","","","","","","",""
"424","<p style=""color:white; text-align:center;"">How pleasant?</p> <img class='center' style='width:500px; height:500px;' src='stim/3005.1.bmp'><img id='pleasant' class='center' src='scale/BlankScalePleasant.png'>","52","html-keyboard-response","223","212647","0.0-11.0-2.21","","","0","NaN","","Infinity","-Infinity","0","0","0","[object Object]","true","[object Object]"
"null","<p style=""color:white; text-align:center;"">How pleasant?</p> <img class='center' style='width:500px; height:500px;' src='stim/3005.1.bmp'><img id='pleasant' class='center' src='scale/PleasantScale4.jpg'>","null","html-keyboard-response","224","213154","0.0-11.0-3.21","","","0","NaN","","Infinity","-Infinity","0","0","0","[object Object]","true","[object Object]"
"null","","null","html-keyboard-response","225","213657","0.0-11.0-4.21","","","","","","","","","","","","",""
"538","<p style=""color:white; text-align:center;"">How unpleasant?</p> <img class='center' style='width:500px; height:500px;' src='stim/3005.1.bmp'><img class='center' src='scale/BlankScaleUnpleasant.png'>","52","html-keyboard-response","226","214195","0.0-11.0-5.21","","","0","NaN","","Infinity","-Infinity","0","0","0","[object Object]","true","[object Object]"
"null","<p style=""color:white; text-align:center;"">How unpleasant?</p> <img class='center' style='width:500px; height:500px;' src='stim/3005.1.bmp'><img id='pleasant' class='center' src='scale/UnpleasantScale4.jpg'>","null","html-keyboard-response","227","214696","0.0-11.0-6.21","","","0","NaN","","Infinity","-Infinity","0","0","0","[object Object]","true","[object Object]"
"null","","null","html-keyboard-response","228","215202","0.0-11.0-7.21","","","","","","","","","","","","",""
"709","<p style=""color:white; text-align:center;"">How arousing/exciting?</p> <img class='center' style='width:500px; height:500px;' src='stim/3005.1.bmp'><img class='center' src='scale/BlankScaleArousal.png'>","52","html-keyboard-response","229","215913","0.0-11.0-8.21","","","0","NaN","","Infinity","-Infinity","0","0","0","[object Object]","true","[object Object]"
"null","<p style=""color:white; text-align:center;"">How arousing/exciting?</p> <img class='center' style='width:500px; height:500px;' src='stim/3005.1.bmp'><img id='pleasant' class='center' src='scale/ArousalScale4.jpg'>","null","html-keyboard-response","230","216419","0.0-11.0-9.21","","","0","NaN","","Infinity","-Infinity","0","0","0","[object Object]","true","[object Object]"
"null","<div style=""color:white; font-size:60px;"">+</div>","null","html-keyboard-response","231","217422","0.0-11.0-0.22","fixation","","","","","","","","","","","",""
"null","","null","html-keyboard-response","232","217928","0.0-11.0-1.22","","","","","","","","","","","","",""
"1534","<p style=""color:white; text-align:center;"">How pleasant?</p> <img class='center' style='width:500px; height:500px;' src='stim/9445.bmp'><img id='pleasant' class='center' src='scale/BlankScalePleasant.png'>","51","html-keyboard-response","233","219463","0.0-11.0-2.22","","","0","NaN","","Infinity","-Infinity","0","0","0","[object Object]","true","[object Object]"
"null","<p style=""color:white; text-align:center;"">How pleasant?</p> <img class='center' style='width:500px; height:500px;' src='stim/9445.bmp'><img id='pleasant' class='center' src='scale/PleasantScale3.jpg'>","null","html-keyboard-response","234","219968","0.0-11.0-3.22","","","0","NaN","","Infinity","-Infinity","0","0","0","[object Object]","true","[object Object]"
"null","","null","html-keyboard-response","235","220472","0.0-11.0-4.22","","","","","","","","","","","","",""
"531","<p style=""color:white; text-align:center;"">How unpleasant?</p> <img class='center' style='width:500px; height:500px;' src='stim/9445.bmp'><img class='center' src='scale/BlankScaleUnpleasant.png'>","51","html-keyboard-response","236","221006","0.0-11.0-5.22","","","0","NaN","","Infinity","-Infinity","0","0","0","[object Object]","true","[object Object]"
"null","<p style=""color:white; text-align:center;"">How unpleasant?</p> <img class='center' style='width:500px; height:500px;' src='stim/9445.bmp'><img id='pleasant' class='center' src='scale/UnpleasantScale3.jpg'>","null","html-keyboard-response","237","221510","0.0-11.0-6.22","","","0","NaN","","Infinity","-Infinity","0","0","0","[object Object]","true","[object Object]"
"null","","null","html-keyboard-response","238","222014","0.0-11.0-7.22","","","","","","","","","","","","",""
"652","<p style=""color:white; text-align:center;"">How arousing/exciting?</p> <img class='center' style='width:500px; height:500px;' src='stim/9445.bmp'><img class='center' src='scale/BlankScaleArousal.png'>","51","html-keyboard-response","239","222666","0.0-11.0-8.22","","","0","NaN","","Infinity","-Infinity","0","0","0","[object Object]","true","[object Object]"
"null","<p style=""color:white; text-align:center;"">How arousing/exciting?</p> <img class='center' style='width:500px; height:500px;' src='stim/9445.bmp'><img id='pleasant' class='center' src='scale/ArousalScale3.jpg'>","null","html-keyboard-response","240","223170","0.0-11.0-9.22","","","0","NaN","","Infinity","-Infinity","0","0","0","[object Object]","true","[object Object]"
"null","<div style=""color:white; font-size:60px;"">+</div>","null","html-keyboard-response","241","224175","0.0-11.0-0.23","fixation","","","","","","","","","","","",""
"null","","null","html-keyboard-response","242","224679","0.0-11.0-1.23","","","","","","","","","","","","",""
"2959","<p style=""color:white; text-align:center;"">How pleasant?</p> <img class='center' style='width:500px; height:500px;' src='stim/7547.bmp'><img id='pleasant' class='center' src='scale/BlankScalePleasant.png'>","50","html-keyboard-response","243","227638","0.0-11.0-2.23","","","0","NaN","","Infinity","-Infinity","0","0","0","[object Object]","true","[object Object]"
"null","<p style=""color:white; text-align:center;"">How pleasant?</p> <img class='center' style='width:500px; height:500px;' src='stim/7547.bmp'><img id='pleasant' class='center' src='scale/PleasantScale2.jpg'>","null","html-keyboard-response","244","228144","0.0-11.0-3.23","","","0","NaN","","Infinity","-Infinity","0","0","0","[object Object]","true","[object Object]"
"null","","null","html-keyboard-response","245","228650","0.0-11.0-4.23","","","","","","","","","","","","",""
"649","<p style=""color:white; text-align:center;"">How unpleasant?</p> <img class='center' style='width:500px; height:500px;' src='stim/7547.bmp'><img class='center' src='scale/BlankScaleUnpleasant.png'>","50","html-keyboard-response","246","229300","0.0-11.0-5.23","","","0","NaN","","Infinity","-Infinity","0","0","0","[object Object]","true","[object Object]"
"null","<p style=""color:white; text-align:center;"">How unpleasant?</p> <img class='center' style='width:500px; height:500px;' src='stim/7547.bmp'><img id='pleasant' class='center' src='scale/UnpleasantScale2.jpg'>","null","html-keyboard-response","247","229807","0.0-11.0-6.23","","","0","NaN","","Infinity","-Infinity","0","0","0","[object Object]","true","[object Object]"
"286","","50","html-keyboard-response","248","230095","0.0-11.0-7.23","","","","","","","","","","","","",""
"1059","<p style=""color:white; text-align:center;"">How arousing/exciting?</p> <img class='center' style='width:500px; height:500px;' src='stim/7547.bmp'><img class='center' src='scale/BlankScaleArousal.png'>","50","html-keyboard-response","249","231155","0.0-11.0-8.23","","","0","NaN","","Infinity","-Infinity","0","0","0","[object Object]","true","[object Object]"
"null","<p style=""color:white; text-align:center;"">How arousing/exciting?</p> <img class='center' style='width:500px; height:500px;' src='stim/7547.bmp'><img id='pleasant' class='center' src='scale/ArousalScale2.jpg'>","null","html-keyboard-response","250","231659","0.0-11.0-9.23","","","0","NaN","","Infinity","-Infinity","0","0","0","[object Object]","true","[object Object]"
"null","<p style=""color:white;"">You have now completed the task! Saving data...PLEASE DO NOT CLOSE THIS BROWSER until you complete the second part.</p> <p style=""color:white;"">BEFORE THE LINK DISAPPEARS please move on to the second part of the task at this link to obtain your completion code:</p> <a href=https://survey.az1.qualtrics.com/SE/?SID=SV_9uARDX1aXEXq1pP&Q_JFE=0&workerId= target=""_blank"">https://survey.az1.qualtrics.com/SE/?SID=SV_9uARDX1aXEXq1pP&Q_JFE=0&workerId=</a>","null","html-keyboard-response","251","271662","0.0-12.0","","","","","","","","","","","","",""
