"rt","stimulus","key_press","trial_type","trial_index","time_elapsed","internal_node_id","condition","descriptor","trial","test_part","pleasant_rating","unpleasant_rating","arousal_rating"
"455.674999859184","<h1 style=""color:white;"">Welcome to the experiment!</h1><p style=""color:white;"">Press any key to begin.</p>","32","html-keyboard-response","0","460","0.0-0.0","","","","","","",""
"190.54499990306795","<h2 style=""color:white;"">You will now see a series of pictures. </h2><h3 style=""color:white;"">Some of the pictures will be <b>positive</b>, like pictures of babies.   </h3><h3 style=""color:white;"">Some will be <b>negative</b>, like pictures of sharks or sad people. </h3><h3 style=""color:white;""> Some will be <b>neutral</b>, like pictures of a clock or desk.</h3><p style=""color:white;""> Press the spacebar to continue.</p>","32","html-keyboard-response","1","652","0.0-1.0-0.0","","","","","","",""
"163.85500016622245","<h2 style=""color:white;"">We want you to tell us how each picture makes you <b>feel</b>.</h2> <h3 style=""color:white;"">You will make <b>3 ratings</b> for each picture.</h3> <p style=""color:white;""> Press the spacebar to continue.</p>","32","html-keyboard-response","2","816","0.0-1.0-1.0","","","","","","",""
"159.66000012122095","<h2 style=""color:white;"">The first rating you will be asked to make is a rating of how <b>pleasant</b> you feel when you see the photo.</h2> <h3 style=""color:white;""><b>""Pleasantness""</b>  refers to how <b>happy</b> or <b>good</b> you feel when you see each photo and how much you like looking at it.</h3> <p style=""color:white;""> Press the spacebar to continue.</p>","32","html-keyboard-response","3","977","0.0-1.0-2.0","","","","","","",""
"162.27999981492758","<h2 style=""color:white;""><b>Pleasantness</b></h2> <h3 style=""color:white;"">This is the <b>pleasantness scale</b> that you will use to rate how <b>positive</b> you feel when you see each picture.</h3><img class='center' style='width:453px; height:215px;' src='scale/BlankScalePleasant.png'></img><p style=""color:white;""> Press the spacebar to continue.</p>","32","html-keyboard-response","4","1141","0.0-1.0-3.0","","","","","","",""
"127.31000012718141","<h2 style=""color:white;"">The second rating you will be asked to make is a rating of how <b>unpleasant</b> you feel when you see the photo.</h2> <h3 style=""color:white;""><b>""Unpleasantness""</b> refers to how <b>bad</b> or <b>unhappy</b> you feel when you see each photo.</h3><p style=""color:white;""> Press the spacebar to continue.</p>","32","html-keyboard-response","5","1269","0.0-1.0-4.0","","","","","","",""
"123.62500000745058","<h2 style=""color:white;""><b>Unpleasantness</b></h2> <h3 style=""color:white;"">This is the <b>unpleasantness scale</b> that you will use to rate how <b>negative</b> you feel when you see each picture.</h3><img class='center' style='width:451px; height:211px;' src='scale/BlankScaleUnpleasant.png'></img><p style=""color:white;""> Press the spacebar to continue.</p>","32","html-keyboard-response","6","1394","0.0-1.0-5.0","","","","","","",""
"151.0749999433756","<h2 style=""color:white;"">You should decide how to rate each photo on the basis of how <b>pleasant</b> or <b>unpleasant</b> you feel when you see it.</h2> <h3 style=""color:white;"">There are no ""right"" or ""wrong"" answers for rating the photos.</h3> <h3 style=""color:white;"">Just go by how much you like or dislike each one.</h3> <p style=""color:white;""> Press the spacebar to continue.</p>","32","html-keyboard-response","7","1546","0.0-1.0-6.0","","","","","","",""
"136.23999990522861","<h2 style=""color:white;"">The third rating you will be asked to make is a rating of how <b>arousing</b> or <b>exciting</b> each picture makes you feel.</h2> <h3 style=""color:white;""><b>""Arousing""</b> refers to how <b>excited</b> or <b>keyed-up</b> the photo makes you feel.<h3><h3 style=""color:white;"">Some of the pictures will be <b>highly arousing</b> and some will make you feel more <b>calm</b> or <b>sleepy</b>.</h3> <p style=""color:white;""> Press the spacebar to continue.</p>","32","html-keyboard-response","8","1683","0.0-1.0-7.0","","","","","","",""
"142.46000000275671","<h2 style=""color:white;""><b>Arousal</b></h2> <p style=""color:white;"">This is the <b>arousal scale</b> that you will use to rate how <b>calm to excited</b> you feel when you see each picture.</p><img class='center' style='width:538px; height:222px;' src='scale/BlankScaleArousal.png'></img><p style=""color:white;""> Press the spacebar to continue.</p>","32","html-keyboard-response","9","1827","0.0-1.0-8.0","","","","","","",""
"135.5250000488013","<h2 style=""color:white;"">Now we will have you rate some pictures for how <b>positive</b>, how <b>negative</b>, and how <b>arousing</b> they make you feel.</h2> <h3 style=""color:white;"">Please press the number on top of your keybaord that corresponds to your choice.</h3> <p style=""color:white;""> Press the spacebar to continue.</p>","32","html-keyboard-response","10","1963","0.0-1.0-9.0","","","","","","",""
"null","<div style=""color:white; font-size:60px;"">+</div>","null","html-keyboard-response","11","2966","0.0-2.0-0.0","","","","","","",""
"null","","null","html-keyboard-response","12","4970","0.0-2.0-1.0","negative","hospital","1","","","",""
"2076.115000061691","<h2 style=""color:white; text-align:center;"">How positive?</h2> <img class='center' style='height: 300px; width=450px;' src='stim/2205.bmp'><img class='center' src='scale/BlankScalePleasant.png'>","49","html-keyboard-response","13","7049","0.0-2.0-2.0","","","","pleasant","1","",""
"null","<h2 style=""color:white; text-align:center;"">How positive?</h2> <img class='center' style='height: 300px; width=450px;' src='stim/2205.bmp'><img class='center' src='scale/PleasantScale1.jpg'>","null","html-keyboard-response","14","9054","0.0-2.0-3.0","","","","","","",""
"null","","null","html-keyboard-response","15","11059","0.0-2.0-4.0","negative","hospital","1","","","",""
"451.7949998844415","<h2 style=""color:white; text-align:center;"">How negative?</h2> <img class='center' style='height: 300px; width=450px;' src='stim/2205.bmp'><img class='center' src='scale/BlankScaleUnpleasant.png'>","52","html-keyboard-response","16","11512","0.0-2.0-5.0","","","","unpleasant","","4",""
"null","<h2 style=""color:white; text-align:center;"">How negative?</h2> <img class='center' style='height: 300px; width=450px;' src='stim/2205.bmp'><img class='center' src='scale/UnpleasantScale4.jpg'>","null","html-keyboard-response","17","13519","0.0-2.0-6.0","","","","","","",""
"null","","null","html-keyboard-response","18","15523","0.0-2.0-7.0","negative","hospital","1","","","",""
"467.6549998112023","<h2 style=""color:white; text-align:center;"">How calm/excited?</h2> <img class='center' style='height: 300px; width=450px;' src='stim/2205.bmp'><img class='center' src='scale/BlankScaleArousal.png'>","49","html-keyboard-response","19","15992","0.0-2.0-8.0","","","","arousal","","","1"
"null","<h2 style=""color:white; text-align:center;"">How calm/excited?</h2> <img class='center' style='height: 300px; width=450px;' src='stim/2205.bmp'><img class='center' src='scale/ArousalScale1.jpg'>","null","html-keyboard-response","20","17995","0.0-2.0-9.0","","","","","","",""
"null","<div style=""color:white; font-size:60px;"">+</div>","null","html-keyboard-response","21","19000","0.0-2.0-0.1","","","","","","",""
"null","","null","html-keyboard-response","22","21001","0.0-2.0-1.1","positive","puppies","2","","","",""
"21398.41999998316","<h2 style=""color:white; text-align:center;"">How positive?</h2> <img class='center' style='height: 300px; width=450px;' src='stim/1710.bmp'><img class='center' src='scale/BlankScalePleasant.png'>","49","html-keyboard-response","23","42402","0.0-2.0-2.1","","","","pleasant","1","",""
"null","<h2 style=""color:white; text-align:center;"">How positive?</h2> <img class='center' style='height: 300px; width=450px;' src='stim/1710.bmp'><img class='center' src='scale/PleasantScale1.jpg'>","null","html-keyboard-response","24","44405","0.0-2.0-3.1","","","","","","",""
"null","","null","html-keyboard-response","25","46411","0.0-2.0-4.1","positive","puppies","2","","","",""
"647.8850001003593","<h2 style=""color:white; text-align:center;"">How negative?</h2> <img class='center' style='height: 300px; width=450px;' src='stim/1710.bmp'><img class='center' src='scale/BlankScaleUnpleasant.png'>","50","html-keyboard-response","26","47061","0.0-2.0-5.1","","","","unpleasant","","2",""
"null","<h2 style=""color:white; text-align:center;"">How negative?</h2> <img class='center' style='height: 300px; width=450px;' src='stim/1710.bmp'><img class='center' src='scale/UnpleasantScale2.jpg'>","null","html-keyboard-response","27","49071","0.0-2.0-6.1","","","","","","",""
"null","","null","html-keyboard-response","28","51076","0.0-2.0-7.1","positive","puppies","2","","","",""
"11150.244999909773","<h2 style=""color:white; text-align:center;"">How calm/excited?</h2> <img class='center' style='height: 300px; width=450px;' src='stim/1710.bmp'><img class='center' src='scale/BlankScaleArousal.png'>","49","html-keyboard-response","29","62229","0.0-2.0-8.1","","","","arousal","","","1"
"null","<h2 style=""color:white; text-align:center;"">How calm/excited?</h2> <img class='center' style='height: 300px; width=450px;' src='stim/1710.bmp'><img class='center' src='scale/ArousalScale1.jpg'>","null","html-keyboard-response","30","64232","0.0-2.0-9.1","","","","","","",""
"null","<div style=""color:white; font-size:60px;"">+</div>","null","html-keyboard-response","31","65235","0.0-2.0-0.2","","","","","","",""
"null","","null","html-keyboard-response","32","67240","0.0-2.0-1.2","neutral","man","3","","","",""
"590.3700001072139","<h2 style=""color:white; text-align:center;"">How positive?</h2> <img class='center' style='height: 300px; width=450px;' src='stim/2190.bmp'><img class='center' src='scale/BlankScalePleasant.png'>","50","html-keyboard-response","33","67832","0.0-2.0-2.2","","","","pleasant","2","",""
"null","<h2 style=""color:white; text-align:center;"">How positive?</h2> <img class='center' style='height: 300px; width=450px;' src='stim/2190.bmp'><img class='center' src='scale/PleasantScale2.jpg'>","null","html-keyboard-response","34","69838","0.0-2.0-3.2","","","","","","",""
"null","","null","html-keyboard-response","35","71842","0.0-2.0-4.2","neutral","man","3","","","",""
"489.1550000756979","<h2 style=""color:white; text-align:center;"">How negative?</h2> <img class='center' style='height: 300px; width=450px;' src='stim/2190.bmp'><img class='center' src='scale/BlankScaleUnpleasant.png'>","50","html-keyboard-response","36","72333","0.0-2.0-5.2","","","","unpleasant","","2",""
"null","<h2 style=""color:white; text-align:center;"">How negative?</h2> <img class='center' style='height: 300px; width=450px;' src='stim/2190.bmp'><img class='center' src='scale/UnpleasantScale2.jpg'>","null","html-keyboard-response","37","74337","0.0-2.0-6.2","","","","","","",""
"null","","null","html-keyboard-response","38","76342","0.0-2.0-7.2","neutral","man","3","","","",""
"2526.259999955073","<h2 style=""color:white; text-align:center;"">How calm/excited?</h2> <img class='center' style='height: 300px; width=450px;' src='stim/2190.bmp'><img class='center' src='scale/BlankScaleArousal.png'>","50","html-keyboard-response","39","78870","0.0-2.0-8.2","","","","arousal","","","2"
"null","<h2 style=""color:white; text-align:center;"">How calm/excited?</h2> <img class='center' style='height: 300px; width=450px;' src='stim/2190.bmp'><img class='center' src='scale/ArousalScale2.jpg'>","null","html-keyboard-response","40","80875","0.0-2.0-9.2","","","","","","",""
"null","<p style='color:white;'>You have completed this task. Please wait for the experimenter to continue.</p><p style='color:white;'>Data Saving...do not close this window until the text dissapears.</p>","null","html-keyboard-response","41","90880","0.0-3.0","","","","","","",""
