"rt","stimulus","key_press","trial_type","trial_index","time_elapsed","internal_node_id","condition","descriptor","test_part","trial","pleasant_rating","unpleasant_rating","arousal_rating"
"387.5549999065697","<h1 style=""color:white;"">Welcome to the experiment!</h1><p style=""color:white;"">Press any key to begin.</p>","32","html-keyboard-response","0","392","0.0-0.0","","","","","","",""
"173.71000000275671","<h2 style=""color:white;"">You will now see a series of pictures. </h2><h3 style=""color:white;"">Some of the pictures will be <b>positive</b>, like pictures of babies.   </h3><h3 style=""color:white;"">Some will be <b>negative</b>, like pictures of sharks or sad people. </h3><h3 style=""color:white;""> Some will be <b>neutral</b>, like pictures of a clock or desk.</h3><p style=""color:white;""> Press the spacebar to continue.</p>","32","html-keyboard-response","1","567","0.0-1.0-0.0","","","","","","",""
"180.28500000946224","<h2 style=""color:white;"">We want you to tell us how each picture makes you <b>feel</b>.</h2> <h3 style=""color:white;"">You will make <b>3 ratings</b> for each picture.</h3> <p style=""color:white;""> Press the spacebar to continue.</p>","32","html-keyboard-response","2","748","0.0-1.0-1.0","","","","","","",""
"268.1999998167157","<h2 style=""color:white;"">The first rating you will be asked to make is a rating of how <b>pleasant</b> you feel when you see the photo.</h2> <h3 style=""color:white;""><b>""Pleasantness""</b>  refers to how <b>happy</b> or <b>good</b> you feel when you see each photo and how much you like looking at it.</h3> <p style=""color:white;""> Press the spacebar to continue.</p>","32","html-keyboard-response","3","1017","0.0-1.0-2.0","","","","","","",""
"186.64499977603555","<h2 style=""color:white;""><b>Pleasantness</b></h2> <h3 style=""color:white;"">This is the <b>pleasantness scale</b> that you will use to rate how <b>positive</b> you feel when you see each picture.</h3><img class='center' style='width:453px; height:215px;' src='scale/BlankScalePleasant.png'></img><p style=""color:white;""> Press the spacebar to continue.</p>","32","html-keyboard-response","4","1205","0.0-1.0-3.0","","","","","","",""
"219.96000013314188","<h2 style=""color:white;"">The second rating you will be asked to make is a rating of how <b>unpleasant</b> you feel when you see the photo.</h2> <h3 style=""color:white;""><b>""Unpleasantness""</b> refers to how <b>bad</b> or <b>unhappy</b> you feel when you see each photo.</h3><p style=""color:white;""> Press the spacebar to continue.</p>","32","html-keyboard-response","5","1426","0.0-1.0-4.0","","","","","","",""
"210.6200000271201","<h2 style=""color:white;""><b>Unpleasantness</b></h2> <h3 style=""color:white;"">This is the <b>unpleasantness scale</b> that you will use to rate how <b>negative</b> you feel when you see each picture.</h3><img class='center' style='width:451px; height:211px;' src='scale/BlankScaleUnpleasant.png'></img><p style=""color:white;""> Press the spacebar to continue.</p>","32","html-keyboard-response","6","1638","0.0-1.0-5.0","","","","","","",""
"176.2800000142306","<h2 style=""color:white;"">You should decide how to rate each photo on the basis of how <b>pleasant</b> or <b>unpleasant</b> you feel when you see it.</h2> <h3 style=""color:white;"">There are no ""right"" or ""wrong"" answers for rating the photos.</h3> <h3 style=""color:white;"">Just go by how much you like or dislike each one.</h3> <p style=""color:white;""> Press the spacebar to continue.</p>","32","html-keyboard-response","7","1815","0.0-1.0-6.0","","","","","","",""
"167.4450000282377","<h2 style=""color:white;"">The third rating you will be asked to make is a rating of how <b>arousing</b> or <b>exciting</b> each picture makes you feel.</h2> <h3 style=""color:white;""><b>""Arousing""</b> refers to how <b>excited</b> or <b>keyed-up</b> the photo makes you feel.<h3><h3 style=""color:white;"">Some of the pictures will be <b>highly arousing</b> and some will make you feel more <b>calm</b> or <b>sleepy</b>.</h3> <p style=""color:white;""> Press the spacebar to continue.</p>","32","html-keyboard-response","8","1983","0.0-1.0-7.0","","","","","","",""
"163.3500000461936","<h2 style=""color:white;""><b>Arousal</b></h2> <p style=""color:white;"">This is the <b>arousal scale</b> that you will use to rate how <b>calm to excited</b> you feel when you see each picture.</p><img class='center' style='width:538px; height:222px;' src='scale/BlankScaleArousal.png'></img><p style=""color:white;""> Press the spacebar to continue.</p>","32","html-keyboard-response","9","2148","0.0-1.0-8.0","","","","","","",""
"147.66500005498528","<h2 style=""color:white;"">Now we will have you rate some pictures for how <b>positive</b>, how <b>negative</b>, and how <b>arousing</b> they make you feel.</h2> <h3 style=""color:white;"">Please press the number on top of your keybaord that corresponds to your choice.</h3> <p style=""color:white;""> Press the spacebar to continue.</p>","32","html-keyboard-response","10","2296","0.0-1.0-9.0","","","","","","",""
"null","<div style=""color:white; font-size:60px;"">+</div>","null","html-keyboard-response","11","3298","0.0-2.0-0.0","","","","","","",""
"387.25499995052814","<h2 style=""color:white; text-align:center;"">How positive?</h2> <img class='center' style='height: 300px; width=450px;' src='stim/2205.bmp'><img class='center' src='scale/BlankScalePleasant.png'>","50","html-keyboard-response","12","3688","0.0-2.0-1.0","negative","hospital","pleasant","1","2","",""
"null","<h2 style=""color:white; text-align:center;"">How positive?</h2> <img class='center' style='height: 300px; width=450px;' src='stim/2205.bmp'><img class='center' src='scale/PleasantScale2.jpg'>","null","html-keyboard-response","13","5694","0.0-2.0-2.0","","","","","","",""
"491.24499992467463","<h2 style=""color:white; text-align:center;"">How negative?</h2> <img class='center' style='height: 300px; width=450px;' src='stim/2205.bmp'><img class='center' src='scale/BlankScaleUnpleasant.png'>","50","html-keyboard-response","14","6187","0.0-2.0-3.0","negative","hospital","unpleasant","1","","2",""
"null","<h2 style=""color:white; text-align:center;"">How negative?</h2> <img class='center' style='height: 300px; width=450px;' src='stim/2205.bmp'><img class='center' src='scale/UnpleasantScale2.jpg'>","null","html-keyboard-response","15","8191","0.0-2.0-4.0","","","","","","",""
"403.47500005736947","<h2 style=""color:white; text-align:center;"">How calm--excited?</h2> <img class='center' style='height: 300px; width=450px;' src='stim/2205.bmp'><img class='center' src='scale/BlankScaleArousal.png'>","52","html-keyboard-response","16","8596","0.0-2.0-5.0","negative","hospital","unpleasant","1","","","4"
"null","<h2 style=""color:white; text-align:center;"">How calm--excited?</h2> <img class='center' style='height: 300px; width=450px;' src='stim/2205.bmp'><img class='center' src='scale/ArousalScale4.jpg'>","null","html-keyboard-response","17","10603","0.0-2.0-6.0","","","","","","",""
"null","<div style=""color:white; font-size:60px;"">+</div>","null","html-keyboard-response","18","11608","0.0-2.0-0.1","","","","","","",""
"653.019999852404","<h2 style=""color:white; text-align:center;"">How positive?</h2> <img class='center' style='height: 300px; width=450px;' src='stim/1710.bmp'><img class='center' src='scale/BlankScalePleasant.png'>","49","html-keyboard-response","19","12263","0.0-2.0-1.1","positive","puppies","pleasant","2","1","",""
"null","<h2 style=""color:white; text-align:center;"">How positive?</h2> <img class='center' style='height: 300px; width=450px;' src='stim/1710.bmp'><img class='center' src='scale/PleasantScale1.jpg'>","null","html-keyboard-response","20","14265","0.0-2.0-2.1","","","","","","",""
"549.1299999412149","<h2 style=""color:white; text-align:center;"">How negative?</h2> <img class='center' style='height: 300px; width=450px;' src='stim/1710.bmp'><img class='center' src='scale/BlankScaleUnpleasant.png'>","49","html-keyboard-response","21","14816","0.0-2.0-3.1","positive","puppies","unpleasant","2","","1",""
"null","<h2 style=""color:white; text-align:center;"">How negative?</h2> <img class='center' style='height: 300px; width=450px;' src='stim/1710.bmp'><img class='center' src='scale/UnpleasantScale1.jpg'>","null","html-keyboard-response","22","16821","0.0-2.0-4.1","","","","","","",""
"9604.12499983795","<h2 style=""color:white; text-align:center;"">How calm--excited?</h2> <img class='center' style='height: 300px; width=450px;' src='stim/1710.bmp'><img class='center' src='scale/BlankScaleArousal.png'>","53","html-keyboard-response","23","26427","0.0-2.0-5.1","positive","puppies","unpleasant","2","","","5"
"null","<h2 style=""color:white; text-align:center;"">How calm--excited?</h2> <img class='center' style='height: 300px; width=450px;' src='stim/1710.bmp'><img class='center' src='scale/ArousalScale5.jpg'>","null","html-keyboard-response","24","28431","0.0-2.0-6.1","","","","","","",""
"null","<div style=""color:white; font-size:60px;"">+</div>","null","html-keyboard-response","25","29437","0.0-2.0-0.2","","","","","","",""
"308.9499999769032","<h2 style=""color:white; text-align:center;"">How positive?</h2> <img class='center' style='height: 300px; width=450px;' src='stim/2190.bmp'><img class='center' src='scale/BlankScalePleasant.png'>","52","html-keyboard-response","26","29748","0.0-2.0-1.2","neutral","man","pleasant","3","4","",""
"null","<h2 style=""color:white; text-align:center;"">How positive?</h2> <img class='center' style='height: 300px; width=450px;' src='stim/2190.bmp'><img class='center' src='scale/PleasantScale4.jpg'>","null","html-keyboard-response","27","31751","0.0-2.0-2.2","","","","","","",""
"448.7850000150502","<h2 style=""color:white; text-align:center;"">How negative?</h2> <img class='center' style='height: 300px; width=450px;' src='stim/2190.bmp'><img class='center' src='scale/BlankScaleUnpleasant.png'>","51","html-keyboard-response","28","32202","0.0-2.0-3.2","neutral","man","unpleasant","3","","3",""
"null","<h2 style=""color:white; text-align:center;"">How negative?</h2> <img class='center' style='height: 300px; width=450px;' src='stim/2190.bmp'><img class='center' src='scale/UnpleasantScale3.jpg'>","null","html-keyboard-response","29","34206","0.0-2.0-4.2","","","","","","",""
"401.20500000193715","<h2 style=""color:white; text-align:center;"">How calm--excited?</h2> <img class='center' style='height: 300px; width=450px;' src='stim/2190.bmp'><img class='center' src='scale/BlankScaleArousal.png'>","53","html-keyboard-response","30","34609","0.0-2.0-5.2","neutral","man","unpleasant","3","","","5"
"null","<h2 style=""color:white; text-align:center;"">How calm--excited?</h2> <img class='center' style='height: 300px; width=450px;' src='stim/2190.bmp'><img class='center' src='scale/ArousalScale5.jpg'>","null","html-keyboard-response","31","36613","0.0-2.0-6.2","","","","","","",""
"null","<p style='color:white;'>You have completed this task. Please wait for the experimenter to continue.</p><p style='color:white;'>Data Saving...do not close this window until the text dissapears.</p>","null","html-keyboard-response","32","46616","0.0-3.0","","","","","","",""
